"Time (s)","Acceleration x (m/s^2)","Acceleration y (m/s^2)","Acceleration z (m/s^2)","Absolute acceleration (m/s^2)"
2.026833303E-3,-4.076023865E-1,3.776496735E0,8.717272339E0,9.508885546E0
1.205083332E-2,-3.665876770E-1,3.793112183E0,8.689280548E0,9.488186497E0
2.207483334E-2,-3.230282593E-1,3.702849884E0,8.780141602E0,9.534481164E0
3.209983330E-2,-2.374063110E-1,3.594924316E0,8.950786743E0,9.648648917E0
4.212383332E-2,-7.514373779E-2,3.542832642E0,9.172924805E0,9.833608655E0
5.214783334E-2,2.380050659E-2,3.456312561E0,9.331744537E0,9.951287308E0
6.217183336E-2,3.592529297E-2,3.390898590E0,9.486971741E0,1.007482589E1
7.219583332E-2,2.380050659E-2,3.355572052E0,9.559720459E0,1.013156876E1
8.221983333E-2,2.290237427E-2,3.363206177E0,9.547445984E0,1.012251970E1
9.224383335E-2,-3.517684937E-2,3.407064972E0,9.536069641E0,1.012649758E1
1.022688333E-1,-1.327738953E-1,3.508104858E0,9.551637268E0,1.017635510E1
1.122928333E-1,-1.571731567E-1,3.593876495E0,9.500743103E0,1.015897491E1
1.223168334E-1,-7.738906860E-2,3.606600037E0,9.423952789E0,1.009080963E1
1.323408333E-1,7.664062500E-2,3.565435638E0,9.129066010E0,9.800920941E0
1.423648333E-1,1.547781372E-1,3.547772369E0,8.826694794E0,9.514262243E0
1.523888333E-1,1.914518738E-1,3.537892914E0,8.648565216E0,9.346176779E0
1.624128333E-1,2.727328491E-1,3.559148712E0,8.572972412E0,9.286429817E0
1.724378333E-1,1.246907043E-1,3.750450897E0,8.758736115E0,9.528740107E0
1.824618333E-1,2.950364685E-1,3.555556183E0,9.068142700E0,9.744754400E0
1.924858333E-1,4.257147217E-1,3.363355865E0,9.132658539E0,9.741603959E0
2.025098333E-1,3.445834351E-1,3.693120117E0,9.622140656E0,1.031229677E1
2.125338333E-1,2.543211365E-1,4.017196198E0,9.983788605E0,1.076469133E1
2.225578333E-1,3.632945251E-1,4.164639587E0,9.622440033E0,1.049130869E1
2.325818333E-1,3.541635132E-1,4.125720520E0,9.514065399E0,1.037614774E1
2.426068333E-1,2.625540161E-1,3.957320709E0,9.402547302E0,1.020476445E1
2.526308333E-1,1.149609375E-1,3.767964478E0,9.486971741E0,1.020849671E1
2.626548333E-1,-8.517288208E-2,3.523822174E0,9.517508240E0,1.014926304E1
2.726788333E-1,-2.881507874E-1,3.269201660E0,9.279952240E0,9.843181597E0
2.827028334E-1,-4.264631653E-1,3.221450958E0,9.035510559E0,9.602086657E0
2.927268333E-1,-3.076103210E-1,2.991529083E0,8.180338898E0,8.715607543E0
3.027508333E-1,-1.788780212E-1,2.538121948E0,8.057444458E0,8.449643280E0
3.127758334E-1,-1.035845947E-1,1.788929901E0,8.412805481E0,8.601528702E0
3.227998333E-1,7.394622803E-2,1.506317596E0,8.237969055E0,8.374878799E0
3.328238333E-1,2.875520325E-1,1.949695587E0,7.888894958E0,8.131338311E0
3.428478334E-1,3.565585327E-1,2.262994080E0,7.736212463E0,8.068287270E0
3.528718333E-1,4.767585754E-1,2.546504517E0,7.723937988E0,8.146852278E0
3.628958333E-1,5.857319641E-1,2.791095886E0,7.960296478E0,8.455744686E0
3.729208334E-1,6.656657410E-1,2.889740753E0,8.324339447E0,8.836760703E0
3.829448333E-1,6.694079590E-1,2.656974792E0,8.682095490E0,9.104197062E0
3.929688333E-1,6.083349609E-1,1.903890839E0,8.886719971E0,9.108713608E0
4.029928333E-1,5.099894714E-1,9.442364502E-1,8.648415527E0,8.714743993E0
4.130168333E-1,5.339396667E-1,5.629792786E-1,9.067693634E0,9.100829911E0
4.230408333E-1,3.597019958E-1,1.190773773E0,1.037238052E1,1.044670309E1
4.330648333E-1,4.525090027E-1,1.111887817E0,1.067969147E1,1.074694695E1
4.430898333E-1,4.628375244E-1,1.031355286E0,1.074690170E1,1.080619306E1
4.531137084E-1,4.882846069E-1,8.177494812E-1,1.081201630E1,1.085388559E1
4.631377083E-1,5.745053101E-1,6.559359741E-1,1.077264816E1,1.080787938E1
4.731617083E-1,6.168672180E-1,6.870712280E-1,1.046907944E1,1.050972009E1
4.831857083E-1,5.387297058E-1,7.319778442E-1,1.011102402E1,1.015178940E1
4.932097083E-1,5.647755432E-1,7.610174561E-1,9.647438049E0,9.693873318E0
5.032347083E-1,6.661148071E-1,8.135581970E-1,9.277557220E0,9.336950994E0
5.132587083E-1,8.684939575E-1,7.626640320E-1,9.524842987E0,9.594715843E0
5.232827083E-1,1.003812561E0,5.316943359E-1,9.682914276E0,9.749316253E0
5.333067083E-1,9.328601074E-1,3.438349915E-1,9.991123352E0,1.004046793E1
5.433307083E-1,8.863069153E-1,3.309617615E-1,1.043450134E1,1.047730375E1
5.533547083E-1,7.351213074E-1,2.013313293E-1,1.055410263E1,1.058158873E1
5.633787083E-1,3.484753418E-1,1.621128845E-1,1.070678513E1,1.071368113E1
5.734037083E-1,-2.739303589E-2,1.263372803E-1,1.112830856E1,1.112905939E1
5.834277083E-1,-3.417393494E-1,7.095245361E-2,1.141301651E1,1.141835215E1
5.934517083E-1,-3.806584167E-1,1.264869690E-1,1.137783966E1,1.138490822E1
6.034757083E-1,-8.053253174E-2,1.712438965E-1,1.115659973E1,1.115820449E1
6.134997084E-1,2.462379456E-1,1.683998108E-1,1.078806610E1,1.079218985E1
6.235237083E-1,3.725752258E-1,1.688488770E-1,1.036145325E1,1.036952437E1
6.335487083E-1,3.852987671E-1,1.968406677E-1,1.004830444E1,1.005761520E1
6.435727084E-1,3.329077148E-1,1.574725342E-1,1.000504440E1,1.001181995E1
6.535967083E-1,4.023632813E-1,1.124162292E-1,1.003273682E1,1.004143125E1
6.636207083E-1,5.322930908E-1,1.077758789E-1,1.015398468E1,1.016849824E1
6.736447084E-1,5.481600952E-1,9.804611206E-2,1.028092072E1,1.029599064E1
6.836687083E-1,5.578898621E-1,7.529342651E-2,1.021670425E1,1.023220191E1
6.936937083E-1,6.544390869E-1,1.440005493E-1,1.005174728E1,1.007405828E1
7.037177084E-1,6.854246521E-1,2.213896179E-1,9.857151947E0,9.883433858E0
7.137417083E-1,6.572831726E-1,2.279759216E-1,9.827513580E0,9.852107255E0
7.237657083E-1,5.053491211E-1,2.321672058E-1,9.898316345E0,9.913926862E0
7.337897083E-1,3.436853027E-1,2.112107849E-1,9.925859070E0,9.934052942E0
7.438137083E-1,1.788780212E-1,3.329077148E-1,1.001432510E1,1.002145360E1
7.538387083E-1,9.505233765E-2,2.782713318E-1,9.933493195E0,9.937844682E0
7.638627084E-1,2.022294617E-1,1.538800049E-1,9.817334747E0,9.820623063E0
7.738867083E-1,3.129991150E-1,8.547225952E-2,9.767039337E0,9.772427097E0
7.839107083E-1,3.942800903E-1,1.377136230E-2,9.878707123E0,9.886581859E0
7.939347083E-1,5.125341797E-1,1.197509766E-3,1.001761826E1,1.003072122E1
8.039587083E-1,5.520520020E-1,-1.317260742E-2,1.011042526E1,1.012549426E1
8.139837083E-1,5.520520020E-1,-4.775070190E-2,1.010428802E1,1.011947024E1
8.240077083E-1,5.652246094E-1,-5.807922363E-2,9.962233429E0,9.978424071E0
8.340317083E-1,5.020559692E-1,-5.388793945E-2,9.728269958E0,9.741365433E0
8.440557083E-1,5.797444153E-1,-6.212081909E-2,9.578281860E0,9.596011983E0
8.540797083E-1,7.306306458E-1,-5.553451538E-2,9.595795441E0,9.623730844E0
8.641037084E-1,7.240443420E-1,-5.044509888E-2,9.648336182E0,9.675596932E0
8.741287083E-1,6.831793213E-1,-4.580474854E-2,9.679920502E0,9.704107016E0
8.841527083E-1,6.635700989E-1,4.086502075E-2,9.685908051E0,9.708697646E0
8.941767084E-1,5.989045715E-1,8.262817383E-2,9.704768829E0,9.723582268E0
9.042007083E-1,4.999603271E-1,8.158035278E-2,9.715995483E0,9.729192357E0
9.142247083E-1,4.604425049E-1,5.433700562E-2,9.795480194E0,9.806446453E0
9.242487084E-1,4.909790039E-1,8.666976929E-2,9.864935760E0,9.877526491E0
9.342737083E-1,4.870870972E-1,2.978805542E-2,9.910890198E0,9.922897041E0
9.442977083E-1,5.887257385E-1,-2.544708252E-2,1.000998413E1,1.002731409E1
9.543217084E-1,7.961943054E-1,-2.664459229E-2,1.012883698E1,1.016011682E1
9.643457083E-1,8.080197144E-1,-2.439926147E-2,1.015368530E1,1.018581447E1
9.743697083E-1,5.903723145E-1,-7.918533325E-2,1.008572662E1,1.010330101E1
9.843937083E-1,3.496728516E-1,-1.059796143E-1,9.970316620E0,9.977009386E0
9.944187083E-1,4.531077576E-1,-6.421646118E-2,9.980495453E0,9.990981928E0
1.004442708E0,6.429130554E-1,-1.721420288E-2,1.004276596E1,1.006333850E1
1.014466708E0,6.515950012E-1,-4.400848389E-2,1.012958542E1,1.015061641E1
1.024490708E0,6.897656250E-1,-2.275268555E-2,1.017898270E1,1.020235184E1
1.034514708E0,7.126679993E-1,8.681945801E-3,1.010758118E1,1.013267824E1
1.044538708E0,5.785469055E-1,3.248245239E-2,9.942175140E0,9.959047050E0
1.054563708E0,4.592449951E-1,6.511459351E-2,9.768536224E0,9.779542210E0
1.064587708E0,4.968168640E-1,1.194515991E-1,9.701325989E0,9.714773370E0
1.074611708E0,5.920188904E-1,1.417552185E-1,9.568402405E0,9.587747675E0
1.084635708E0,6.472540283E-1,1.595681763E-1,9.459429016E0,9.482889702E0
1.094659708E0,6.511459351E-1,1.448986816E-1,9.420809326E0,9.444397017E0
1.104683708E0,6.375242615E-1,1.293310547E-1,9.483678589E0,9.505962512E0
1.114708708E0,6.242019653E-1,1.437011719E-1,9.596992950E0,9.618344546E0
1.124732708E0,6.033952332E-1,1.191522217E-1,9.707014160E0,9.726479680E0
1.134756708E0,5.755531311E-1,6.706054688E-2,9.832004242E0,9.849064216E0
1.144780708E0,5.143304443E-1,6.167175293E-2,9.871522064E0,9.885104303E0
1.154804708E0,5.292993164E-1,5.014572144E-2,9.876162415E0,9.890462901E0
1.164828708E0,5.769003296E-1,5.448669434E-2,9.898915100E0,9.915861180E0
1.174853708E0,6.104306030E-1,1.781295776E-2,9.887688446E0,9.906529444E0
1.184877708E0,6.777905273E-1,-4.879852295E-2,9.906100159E0,9.929380728E0
1.194901708E0,6.685098267E-1,-7.694000244E-2,9.962083740E0,9.984785306E0
1.204925708E0,5.638774109E-1,-6.631210327E-2,9.954599304E0,9.970777419E0
1.214949708E0,5.444178772E-1,-4.236190796E-2,9.939630432E0,9.954618952E0
1.224973708E0,5.667214966E-1,4.490661621E-4,9.942923584E0,9.959061344E0
1.234998708E0,5.710624695E-1,3.338058472E-2,9.934391327E0,9.950847082E0
1.245022708E0,5.650749207E-1,5.882766724E-2,9.955048370E0,9.971246583E0
1.255046708E0,5.530998230E-1,7.214996338E-2,9.964478760E0,9.980078255E0
1.265070708E0,5.174739075E-1,9.041198730E-2,9.944869537E0,9.958734040E0
1.275094708E0,5.421725464E-1,4.430786133E-2,9.938732300E0,9.953608089E0
1.285118708E0,5.978567505E-1,4.445755005E-2,9.999206543E0,1.001716231E1
1.295143708E0,5.156776428E-1,3.592529297E-2,9.938582611E0,9.952016799E0
1.305167708E0,4.788542175E-1,4.161346436E-2,9.873917084E0,9.885609320E0
1.315191708E0,4.996609497E-1,5.568420410E-2,9.834548950E0,9.847391271E0
1.325215708E0,4.852908325E-1,7.125183105E-2,9.791288910E0,9.803566827E0
1.335239708E0,4.951702881E-1,1.028361511E-1,9.763147430E0,9.776237346E0
1.345264708E0,5.930667114E-1,9.550140381E-2,9.775272217E0,9.793712042E0
1.355288708E0,6.709048462E-1,1.140628052E-1,9.819430389E0,9.842984141E0
1.365312708E0,6.414161682E-1,1.065783691E-1,9.839488678E0,9.860948793E0
1.375336708E0,5.453160095E-1,9.669891357E-2,9.872869263E0,9.888390552E0
1.385360708E0,4.556524658E-1,9.145980835E-2,9.898615723E0,9.909519529E0
1.395384708E0,4.025129700E-1,6.466552734E-2,9.967921600E0,9.976254776E0
1.405409708E0,4.417314148E-1,5.852828979E-2,9.945019226E0,9.954996716E0
1.415433708E0,5.592370605E-1,6.855743408E-2,9.806108093E0,9.822280904E0
1.425457708E0,6.141728210E-1,8.741821289E-2,9.711654510E0,9.731448172E0
1.435481708E0,5.785469055E-1,1.296304321E-1,9.648186493E0,9.666386252E0
1.445505708E0,5.495072937E-1,1.395098877E-1,9.654623108E0,9.671254760E0
1.455529500E0,5.237608337E-1,1.824705505E-1,9.719438324E0,9.735250497E0
1.465554500E0,5.394781494E-1,1.895059204E-1,9.786648560E0,9.803338166E0
1.475578500E0,5.755531311E-1,1.597178650E-1,9.836045837E0,9.854165054E0
1.485602500E0,5.806425476E-1,1.719923401E-1,9.808203735E0,9.826880871E0
1.495626500E0,5.348377991E-1,1.423539734E-1,9.730515289E0,9.746242554E0
1.505650500E0,5.715115356E-1,1.175056458E-1,9.710307312E0,9.727820984E0
1.515675500E0,6.173162842E-1,1.299298096E-1,9.724677429E0,9.745117354E0
1.525699500E0,5.490582275E-1,7.005432129E-2,9.761949921E0,9.777629508E0
1.535723500E0,4.694238281E-1,4.296066284E-2,9.873917084E0,9.885162767E0
1.545747500E0,4.897814941E-1,1.437011719E-2,1.000743942E1,1.001942794E1
1.555771500E0,5.788462830E-1,5.089416504E-3,1.011282028E1,1.012937426E1
1.565795500E0,6.652166748E-1,3.966751099E-2,1.010473709E1,1.012668744E1
1.575820500E0,6.032455444E-1,5.209167480E-2,1.002435425E1,1.004262400E1
1.585844500E0,5.005590820E-1,7.873626709E-2,9.944420471E0,9.957321794E0
1.595868500E0,4.945715332E-1,1.130149841E-1,9.897717590E0,9.910710715E0
1.605892500E0,4.953199768E-1,1.031355286E-1,9.823921051E0,9.836940766E0
1.615916500E0,5.040019226E-1,1.646575928E-1,9.748927002E0,9.763334868E0
1.625940500E0,5.536985779E-1,1.678010559E-1,9.723180542E0,9.740378800E0
1.635965500E0,6.099815369E-1,1.357676697E-1,9.764045563E0,9.784022490E0
1.645989500E0,6.469546509E-1,1.193019104E-1,9.826914825E0,9.848910511E0
1.656013500E0,5.864804077E-1,8.936416626E-2,9.899513855E0,9.917273808E0
1.666037500E0,5.375321960E-1,1.013392639E-1,9.955198059E0,9.970214587E0
1.676061500E0,5.510041809E-1,1.170565796E-1,9.925410004E0,9.941381775E0
1.686086500E0,6.328839111E-1,1.073268127E-1,9.928703156E0,9.949432518E0
1.696110500E0,6.706054688E-1,1.362167358E-1,9.898466034E0,9.922091338E0
1.706134500E0,6.634204102E-1,1.474433899E-1,9.862989807E0,9.886376188E0
1.716158500E0,6.218069458E-1,1.428030396E-1,9.859097900E0,9.879719024E0
1.726182500E0,5.890251160E-1,1.646575928E-1,9.862690430E0,9.881635756E0
1.736206500E0,6.394702148E-1,1.986369324E-1,9.846374359E0,9.869116820E0
1.746231500E0,6.259982300E-1,1.983375549E-1,9.873917084E0,9.895728884E0
1.756255500E0,5.505551147E-1,1.703457642E-1,9.905800781E0,9.922550969E0
1.766279500E0,5.289999390E-1,1.490899658E-1,9.885293427E0,9.900560332E0
1.776303500E0,5.391787720E-1,1.263372803E-1,9.820777588E0,9.836378769E0
1.786327500E0,5.301974487E-1,1.288819885E-1,9.783804474E0,9.799007597E0
1.796352500E0,5.266049194E-1,1.425036621E-1,9.778265991E0,9.793472613E0
1.806376500E0,5.303471375E-1,1.558259583E-1,9.782906342E0,9.798510412E0
1.816400500E0,6.517446899E-1,1.808239746E-1,9.801318054E0,9.824627426E0
1.826424500E0,6.851252747E-1,1.694476318E-1,9.813592529E0,9.838938331E0
1.836448500E0,6.152206421E-1,1.803749084E-1,9.853110352E0,9.873946280E0
1.846472500E0,5.580395508E-1,2.091151428E-1,9.901459808E0,9.919377179E0
1.856497500E0,5.077441406E-1,1.796264648E-1,9.932744751E0,9.947335727E0
1.866521500E0,4.908293152E-1,1.642085266E-1,9.979148254E0,9.992561120E0
1.876545500E0,4.831951904E-1,1.586700439E-1,1.003318588E1,1.004606753E1
1.886569500E0,5.090913391E-1,1.451980591E-1,9.974657593E0,9.988696139E0
1.896593500E0,5.436694336E-1,1.384620667E-1,9.913734283E0,9.929595945E0
1.906618500E0,5.965095520E-1,1.869612122E-1,9.879305878E0,9.899063732E0
1.916642500E0,6.141728210E-1,2.107617188E-1,9.859247589E0,9.880606853E0
1.926666500E0,5.846841431E-1,2.204914856E-1,9.835596771E0,9.855426723E0
1.936690500E0,5.593867493E-1,1.932481384E-1,9.796078949E0,9.813940144E0
1.946714500E0,5.795947266E-1,1.580712891E-1,9.754914551E0,9.773396261E0
1.956738500E0,6.337820435E-1,1.645079041E-1,9.707912292E0,9.729969353E0
1.966763500E0,6.451583862E-1,1.990859985E-1,9.678124237E0,9.701646939E0
1.976787500E0,5.628295898E-1,2.348616028E-1,9.737101593E0,9.756181863E0
1.986811500E0,4.933740234E-1,2.130070496E-1,9.854756927E0,9.869398362E0
1.996835500E0,5.078938293E-1,1.833686829E-1,9.912087708E0,9.926785126E0
2.006859500E0,5.155279541E-1,1.785786438E-1,9.965227203E0,9.980150932E0
2.016884500E0,5.487588501E-1,1.808239746E-1,9.973759460E0,9.990481037E0
2.026908500E0,5.950126648E-1,2.109114075E-1,9.971813507E0,9.991776034E0
2.036932500E0,5.435197449E-1,2.191442871E-1,9.889185333E0,9.906534434E0
2.046956500E0,4.701722717E-1,1.871109009E-1,9.818532257E0,9.831563870E0
2.056980500E0,5.310955811E-1,1.657054138E-1,9.793683929E0,9.809473264E0
2.067004500E0,6.252497864E-1,1.913021851E-1,9.810598755E0,9.832363996E0
2.077029500E0,6.030958557E-1,1.983375549E-1,9.880204010E0,9.900580472E0
2.087053500E0,4.935237122E-1,1.969903564E-1,9.934690704E0,9.948891910E0
2.097077500E0,4.215234375E-1,1.645079041E-1,9.925859070E0,9.936167427E0
2.107101500E0,5.014572144E-1,1.963916016E-1,9.922715607E0,9.937319257E0
2.117125500E0,5.691165161E-1,2.020797729E-1,9.911938019E0,9.930319488E0
2.127150500E0,6.045927429E-1,2.118095398E-1,9.848020935E0,9.868835392E0
2.137174500E0,6.167175293E-1,2.302212524E-1,9.807006226E0,9.829074903E0
2.147198500E0,6.086343384E-1,2.239343262E-1,9.763446808E0,9.784961722E0
2.157222500E0,5.658233643E-1,2.173480225E-1,9.781409454E0,9.800171792E0
2.167246500E0,5.177732849E-1,2.151026917E-1,9.782157898E0,9.798212668E0
2.177271500E0,5.107379150E-1,2.210902405E-1,9.801168365E0,9.816956526E0
2.187295500E0,5.026547241E-1,2.209405518E-1,9.887538757E0,9.902772298E0
2.197319500E0,5.333409119E-1,2.424957275E-1,9.918374634E0,9.935663646E0
2.207343500E0,5.713618469E-1,2.667453003E-1,9.906698914E0,9.926746233E0
2.217367500E0,5.408253479E-1,2.817141724E-1,9.873767395E0,9.892579921E0
2.227391500E0,5.388793945E-1,2.746788025E-1,9.810149689E0,9.828777969E0
2.237416500E0,5.715115356E-1,2.121089172E-1,9.787995758E0,9.806960619E0
2.247440500E0,6.062393188E-1,1.911524963E-1,9.829459534E0,9.849991884E0
2.257464500E0,5.890251160E-1,1.911524963E-1,9.918224945E0,9.937538726E0
2.267488500E0,5.530998230E-1,1.980381775E-1,9.926308136E0,9.943677979E0
2.277512500E0,5.192701721E-1,2.362088013E-1,9.913883972E0,9.930283557E0
2.287537500E0,5.057981873E-1,2.709365845E-1,9.870174866E0,9.886839248E0
2.297561500E0,4.858895874E-1,2.526745605E-1,9.830207977E0,9.845451843E0
2.307585500E0,5.360353088E-1,2.365081787E-1,9.780062256E0,9.797596016E0
2.317609500E0,6.159690857E-1,2.465373230E-1,9.770182800E0,9.792684541E0
2.327633500E0,6.230044556E-1,2.204914856E-1,9.791588287E0,9.813865306E0
2.337657500E0,6.662644958E-1,2.296224976E-1,9.831255798E0,9.856481393E0
2.347682500E0,6.382727051E-1,2.454895020E-1,9.845476227E0,9.869197499E0
2.357706500E0,5.945635986E-1,2.320175171E-1,9.818083191E0,9.838805595E0
2.367730500E0,5.776487732E-1,2.360591125E-1,9.803862762E0,9.823702310E0
2.377754500E0,5.842350769E-1,2.561174011E-1,9.779164124E0,9.799947842E0
2.387778500E0,5.610333252E-1,2.360591125E-1,9.768685913E0,9.787630294E0
2.397803500E0,5.258564758E-1,2.053729248E-1,9.823022919E0,9.839231796E0
2.407827500E0,5.661227417E-1,1.877096558E-1,9.925709381E0,9.943612854E0
2.417851500E0,6.306385803E-1,2.016307068E-1,9.965676270E0,9.987645542E0
2.427875500E0,6.146218872E-1,1.890568542E-1,1.000205063E1,1.002270020E1
2.437899500E0,5.608836365E-1,1.941462708E-1,9.986183624E0,1.000380661E1
2.447924500E0,5.632786560E-1,2.070195007E-1,9.940528564E0,9.958626816E0
2.457948500E0,6.212081909E-1,1.936972046E-1,9.924511871E0,9.945820937E0
2.467972500E0,6.206094360E-1,1.917512512E-1,9.870324554E0,9.891674854E0
2.477996500E0,6.110293579E-1,2.260299683E-1,9.844129028E0,9.865663827E0
2.488020500E0,6.010002136E-1,2.329156494E-1,9.868378601E0,9.889405805E0
2.498045500E0,5.789959717E-1,2.411485291E-1,9.915231171E0,9.935048974E0
2.508069500E0,5.858816528E-1,2.347119141E-1,9.913285217E0,9.933356472E0
2.518093500E0,5.516029358E-1,2.601589966E-1,9.886940002E0,9.905732235E0
2.528117500E0,5.441184998E-1,2.421963501E-1,9.816586304E0,9.834637292E0
2.538141500E0,5.406756592E-1,2.797682190E-1,9.731712799E0,9.750735071E0
2.548165500E0,5.351371765E-1,2.760260010E-1,9.729766846E0,9.748380636E0
2.558190500E0,5.601351929E-1,2.661465454E-1,9.809550934E0,9.829133987E0
2.568214500E0,5.459147644E-1,2.874023438E-1,9.891280975E0,9.910502630E0
2.578238500E0,5.191204834E-1,2.811154175E-1,9.939630432E0,9.957146433E0
2.588262500E0,4.462220764E-1,2.245330811E-1,9.940827942E0,9.953370756E0
2.598286500E0,4.248165894E-1,2.067201233E-1,9.927805023E0,9.939039940E0
2.608311500E0,4.673281860E-1,2.296224976E-1,9.888736267E0,9.902435412E0
2.618335500E0,5.032534790E-1,2.603086853E-1,9.834399261E0,9.850707259E0
2.628359500E0,4.938230896E-1,3.056643677E-1,9.819280701E0,9.836440689E0
2.638383500E0,4.652325439E-1,2.954855347E-1,9.841434631E0,9.856854905E0
2.648407500E0,4.734654236E-1,2.739303589E-1,9.829758911E0,9.844966612E0
2.658432500E0,5.321434021E-1,2.790197754E-1,9.822124786E0,9.840485961E0
2.668456500E0,5.626799011E-1,2.805166626E-1,9.843530273E0,9.863588927E0
2.678480500E0,4.899311829E-1,2.468367004E-1,9.848320312E0,9.863588287E0
2.688504500E0,5.069956970E-1,2.727328491E-1,9.839039612E0,9.855867710E0
2.698528500E0,4.971162415E-1,2.725831604E-1,9.790540466E0,9.806941866E0
2.708552500E0,4.155358887E-1,2.664459229E-1,9.733059998E0,9.745569271E0
2.718577500E0,3.900888062E-1,2.342628479E-1,9.736652527E0,9.747279148E0
2.728601500E0,4.929249573E-1,2.618055725E-1,9.790091400E0,9.805988313E0
2.738625500E0,5.372328186E-1,2.662962341E-1,9.838590546E0,9.856845170E0
2.748649500E0,5.343887329E-1,2.378553772E-1,9.891280975E0,9.908561239E0
2.758673500E0,5.505551147E-1,2.255809021E-1,9.961335297E0,9.979088063E0
2.768698500E0,5.742059326E-1,2.267784119E-1,1.002001328E1,1.003901424E1
2.778722500E0,5.337899780E-1,2.077679443E-1,9.970166931E0,9.986607427E0
2.788746500E0,4.632865906E-1,1.962419128E-1,9.829010468E0,9.841879502E0
2.798770500E0,4.532574463E-1,2.350112915E-1,9.721533966E0,9.734931704E0
2.808794500E0,4.854405212E-1,2.486329651E-1,9.675579529E0,9.690939587E0
2.818819500E0,5.605842590E-1,2.851570129E-1,9.750124512E0,9.770388796E0
2.828843500E0,5.598358154E-1,3.249742126E-1,9.829010468E0,9.850303099E0
2.838867500E0,5.135820007E-1,2.694396973E-1,9.882898407E0,9.899901269E0
2.848891500E0,5.164260864E-1,2.145039368E-1,9.998308411E0,1.001393424E1
2.858915500E0,5.468128967E-1,2.041754150E-1,1.009021729E1,1.010708548E1
2.868940500E0,5.233117676E-1,2.053729248E-1,1.007195526E1,1.008763183E1
2.878964500E0,4.996609497E-1,2.061213684E-1,1.003183868E1,1.004638913E1
2.888988500E0,5.093907166E-1,2.522254944E-1,9.951006775E0,9.967227921E0
2.899012500E0,4.888833618E-1,2.776725769E-1,9.879305878E0,9.895291488E0
2.909036500E0,5.063969421E-1,2.727328491E-1,9.831555176E0,9.848365257E0
2.919060500E0,5.354365540E-1,2.975811768E-1,9.835746460E0,9.854803665E0
2.929085500E0,5.281018066E-1,3.103047180E-1,9.850116577E0,9.869142674E0
2.939109500E0,4.553530884E-1,3.140469360E-1,9.807904358E0,9.823490205E0
2.949133500E0,4.230203247E-1,3.113525391E-1,9.777367859E0,9.791466123E0
2.959157500E0,4.411326599E-1,2.969824219E-1,9.823022919E0,9.837406967E0
2.969181500E0,4.863386536E-1,2.912942505E-1,9.795480194E0,9.811870864E0
2.979206500E0,5.171745300E-1,3.303630066E-1,9.741741943E0,9.761052469E0
2.989230500E0,4.827461243E-1,3.010240173E-1,9.655521240E0,9.672267040E0
2.999254500E0,5.137316895E-1,2.730322266E-1,9.674382019E0,9.691859176E0
3.009278500E0,5.346881104E-1,2.363584900E-1,9.825717316E0,9.843092882E0
3.019302500E0,5.831872559E-1,2.454895020E-1,9.987979889E0,1.000800253E1
3.029327500E0,5.530998230E-1,2.505789185E-1,1.007060806E1,1.008889766E1
3.039351500E0,4.779560852E-1,2.613565063E-1,1.005249573E1,1.006724489E1
3.049375500E0,4.403842163E-1,2.740800476E-1,9.951156464E0,9.964666231E0
3.059399500E0,4.203259277E-1,2.947370911E-1,9.859097900E0,9.872454368E0
3.069423500E0,4.725672913E-1,2.878514099E-1,9.793683929E0,9.809302890E0
3.079448500E0,5.304968262E-1,2.854563904E-1,9.772128754E0,9.790679885E0
3.089472500E0,5.900729370E-1,2.912942505E-1,9.816586304E0,9.838618047E0
3.099496500E0,6.036946106E-1,3.076103210E-1,9.861642609E0,9.884890805E0
3.109520500E0,6.021977234E-1,2.978805542E-1,9.910740509E0,9.933486415E0
3.119544500E0,5.342390442E-1,2.800675964E-1,9.914033661E0,9.932366921E0
3.129569500E0,4.442761230E-1,2.749781799E-1,9.869127045E0,9.882948087E0
3.139593500E0,4.071533203E-1,2.830613708E-1,9.818232880E0,9.830747400E0
3.149617500E0,4.758604431E-1,2.959346008E-1,9.786798248E0,9.802828184E0
3.159641500E0,5.427713013E-1,3.468287659E-1,9.787995758E0,9.809166725E0
3.169665500E0,5.408253479E-1,3.698808289E-1,9.753118286E0,9.775102055E0
3.179690500E0,5.528004456E-1,3.502716064E-1,9.743388519E0,9.765341692E0
3.189714500E0,5.147795105E-1,3.475772095E-1,9.758357391E0,9.778105483E0
3.199738500E0,4.158352661E-1,3.150947571E-1,9.795480194E0,9.809364705E0
3.209762500E0,4.581971741E-1,2.944377136E-1,9.881700897E0,9.896698987E0
3.219786500E0,5.075944519E-1,2.644999695E-1,9.902956696E0,9.919484043E0
3.229810500E0,4.706213379E-1,2.619552612E-1,9.870324554E0,9.885009449E0
3.239835500E0,4.472698975E-1,2.760260010E-1,9.848170624E0,9.862185627E0
3.249859500E0,4.709207153E-1,2.971321106E-1,9.849517822E0,9.865244809E0
3.259883500E0,5.114863586E-1,3.074606323E-1,9.903555450E0,9.921520090E0
3.269907500E0,4.947212219E-1,2.764750671E-1,9.928254089E0,9.944416364E0
3.279931500E0,5.177732849E-1,2.406994629E-1,9.978399811E0,9.994723017E0
3.289956500E0,5.376818848E-1,2.561174011E-1,9.990674286E0,1.000840999E1
3.299980500E0,5.426216125E-1,2.520758057E-1,9.950258331E0,9.968230600E0
3.310004500E0,5.258564758E-1,3.088078308E-1,9.927206268E0,9.945919344E0
3.320028500E0,4.743635559E-1,3.094065857E-1,9.843380585E0,9.859659961E0
3.330052500E0,4.596940613E-1,2.951861572E-1,9.769134979E0,9.784398384E0
3.340077500E0,4.884342957E-1,2.969824219E-1,9.721384277E0,9.738176364E0
3.350101500E0,5.102888489E-1,2.811154175E-1,9.759554901E0,9.776928580E0
3.360125500E0,5.755531311E-1,2.956352234E-1,9.832602997E0,9.853869457E0
3.370148500E0,5.833369446E-1,3.119512939E-1,9.837243347E0,9.859460040E0
3.380172500E0,4.821473694E-1,2.671943665E-1,9.833950195E0,9.849387563E0
3.390197500E0,4.667294312E-1,2.163002014E-1,9.869875488E0,9.883271943E0
3.400221500E0,5.530998230E-1,2.291734314E-1,9.933193817E0,9.951219990E0
3.410245500E0,5.164260864E-1,2.475851440E-1,9.957144012E0,9.973600713E0
3.420269500E0,4.261637878E-1,2.164498901E-1,9.981543274E0,9.992981150E0
3.430293500E0,4.423301697E-1,2.174977112E-1,9.977501678E0,9.989669713E0
3.440318500E0,4.962181091E-1,2.579136658E-1,9.923613739E0,9.939359210E0
3.450342250E0,5.128335571E-1,2.836601257E-1,9.794432373E0,9.811950205E0
3.460366250E0,4.827461243E-1,2.583627319E-1,9.678872681E0,9.694347399E0
3.470390250E0,4.869374084E-1,2.977308655E-1,9.688602448E0,9.705398966E0
3.480414250E0,4.622387695E-1,2.906954956E-1,9.740694122E0,9.755987420E0
3.490439250E0,5.173242188E-1,2.874023438E-1,9.867031403E0,9.884762676E0
3.500463250E0,5.824388123E-1,2.854563904E-1,9.969418488E0,9.990496749E0
3.510487250E0,5.640270996E-1,2.969824219E-1,9.966424713E0,9.986788607E0
3.520511250E0,5.138813782E-1,2.653981018E-1,9.925709381E0,9.942545798E0
3.530535250E0,4.721182251E-1,2.420466614E-1,9.857151947E0,9.871419691E0
3.540560250E0,4.564009094E-1,2.456391907E-1,9.816436615E0,9.830110285E0
3.550584250E0,4.385879517E-1,2.040257263E-1,9.805958405E0,9.817881957E0
3.560608250E0,4.435276794E-1,2.076182556E-1,9.879904633E0,9.892034052E0
3.570632250E0,4.608915710E-1,2.377056885E-1,1.000878662E1,1.002221206E1
3.580656250E0,4.543052673E-1,2.345622253E-1,9.954898682E0,9.968019887E0
3.590680250E0,4.510121155E-1,2.761756897E-1,9.887838135E0,9.901970911E0
3.600705250E0,4.761598206E-1,2.740800476E-1,9.867031403E0,9.882315354E0
3.610729250E0,5.441184998E-1,2.788700867E-1,9.855954437E0,9.874901080E0
3.620753250E0,5.622308350E-1,3.161425781E-1,9.819580078E0,9.840741972E0
3.630777250E0,4.664300537E-1,3.132984924E-1,9.727671204E0,9.743885261E0
3.640801250E0,3.610491943E-1,2.835104370E-1,9.667795715E0,9.678688376E0
3.650826250E0,3.908372498E-1,2.754272461E-1,9.718240814E0,9.729995809E0
3.660850250E0,4.357438660E-1,2.766247559E-1,9.809700623E0,9.823269327E0
3.670874250E0,4.692741394E-1,2.751278687E-1,9.848769379E0,9.863780808E0
3.680898250E0,4.822970581E-1,3.074606323E-1,9.847571869E0,9.864168196E0
3.690922250E0,5.213658142E-1,3.080593872E-1,9.823771362E0,9.842418741E0
3.700947250E0,5.385800171E-1,3.085084534E-1,9.820178833E0,9.839774297E0
3.710971250E0,5.224136353E-1,2.734812927E-1,9.898016968E0,9.915565940E0
3.720995250E0,5.288502502E-1,2.658471680E-1,9.955347748E0,9.972928661E0
3.731019250E0,4.812492371E-1,2.450404358E-1,9.951755219E0,9.966397422E0
3.741043250E0,4.671784973E-1,2.480342102E-1,9.955198059E0,9.969239947E0
3.751068250E0,4.875361633E-1,2.773731995E-1,9.961784363E0,9.977563585E0
3.761092250E0,4.589456177E-1,3.013233948E-1,9.950258331E0,9.965393506E0
3.771116250E0,4.092489624E-1,2.929408264E-1,9.910291443E0,9.923062810E0
3.781140250E0,4.477189636E-1,2.945874023E-1,9.887838135E0,9.902352094E0
3.791164250E0,5.016069031E-1,3.168910217E-1,9.861193542E0,9.879026647E0
3.801189250E0,5.304968262E-1,3.327580261E-1,9.812694397E0,9.832656107E0
3.811213250E0,5.442681885E-1,3.375480652E-1,9.770182800E0,9.791151031E0
3.821237250E0,5.421725464E-1,3.215313721E-1,9.761949921E0,9.782279885E0
3.831261250E0,4.745132446E-1,3.113525391E-1,9.792935486E0,9.809367393E0
3.841285250E0,4.400848389E-1,3.101550293E-1,9.825567627E0,9.840307414E0
3.851310250E0,4.360432434E-1,3.209326172E-1,9.866582336E0,9.881425932E0
3.861334250E0,4.159849548E-1,3.005749512E-1,9.907297668E0,9.920581428E0
3.871358250E0,4.629872131E-1,3.091072083E-1,9.972112885E0,9.987639351E0
3.881382250E0,5.001100159E-1,3.177891541E-1,9.934091949E0,9.951747728E0
3.891406250E0,4.710704041E-1,3.115022278E-1,9.886341248E0,9.902458494E0
3.901431250E0,4.785548401E-1,3.472778320E-1,9.842183075E0,9.859928210E0
3.911455250E0,5.092410278E-1,3.513194275E-1,9.812395020E0,9.831879158E0
3.921479250E0,5.739065552E-1,3.427871704E-1,9.857900391E0,9.880540061E0
3.931503250E0,5.194198608E-1,2.896476746E-1,9.935738525E0,9.953521629E0
3.941527250E0,4.236190796E-1,2.520758057E-1,1.000205063E1,1.001419054E1
3.951551250E0,4.511618042E-1,2.821632385E-1,1.001881577E1,1.003293738E1
3.961576250E0,5.345384216E-1,3.122506714E-1,9.950258331E0,9.969497112E0
3.971600250E0,5.662724304E-1,3.577560425E-1,9.897567902E0,9.920206864E0
3.981624250E0,5.216651917E-1,3.462300110E-1,9.837243347E0,9.857147988E0
3.991648250E0,5.188211060E-1,3.403921509E-1,9.735754395E0,9.755508997E0
4.001672250E0,5.486091614E-1,3.614982605E-1,9.692793732E0,9.715034911E0
4.011697250E0,5.307962036E-1,3.495231628E-1,9.670639801E0,9.691500669E0
4.021721250E0,4.641847229E-1,3.848497009E-1,9.751920776E0,9.770544283E0
4.031745250E0,4.363426208E-1,3.755690002E-1,9.804162140E0,9.821050973E0
4.041769250E0,4.872367859E-1,3.845503235E-1,9.861193542E0,9.880709323E0
4.051793250E0,4.613406372E-1,3.824546814E-1,9.915680237E0,9.933771757E0
4.061818250E0,3.766168213E-1,3.420387268E-1,9.939780121E0,9.952791547E0
4.071842250E0,3.580554199E-1,2.957849121E-1,9.920320587E0,9.931185878E0
4.081866250E0,4.790039062E-1,3.531156921E-1,9.917476501E0,9.935314569E0
4.091890250E0,5.685177612E-1,3.552113342E-1,9.898466034E0,9.921139922E0
4.101914250E0,5.890251160E-1,3.484753418E-1,9.855505371E0,9.879239433E0
4.111939250E0,5.489085388E-1,3.990701294E-1,9.769134979E0,9.792678683E0
4.121963250E0,5.046006775E-1,4.210743713E-1,9.706265717E0,9.728490100E0
4.131987250E0,5.445675659E-1,4.279600525E-1,9.646689606E0,9.671521286E0
4.142011250E0,5.281018066E-1,4.162843323E-1,9.642348633E0,9.665768015E0
4.152035250E0,5.129832458E-1,3.903881836E-1,9.707463226E0,9.728843561E0
4.162059250E0,4.861889648E-1,3.664379883E-1,9.812395020E0,9.831264035E0
4.172084250E0,5.090913391E-1,3.469784546E-1,9.881401520E0,9.900589075E0
4.182108250E0,5.246589661E-1,3.794609070E-1,9.918224945E0,9.939338191E0
4.192132250E0,4.793032837E-1,3.487747192E-1,9.933044128E0,9.950715607E0
4.202156250E0,4.297563171E-1,3.347039795E-1,9.948611755E0,9.963513091E0
4.212180250E0,4.602928162E-1,3.614982605E-1,1.003588028E1,1.005293208E1
4.222205250E0,4.986131287E-1,3.441343689E-1,1.002764740E1,1.004593231E1
4.232229250E0,4.875361633E-1,3.028202820E-1,9.976304169E0,9.992799232E0
4.242253250E0,4.740641785E-1,3.457809448E-1,9.900112610E0,9.917486123E0
4.252277250E0,4.813989258E-1,3.851490784E-1,9.832752686E0,9.852061211E0
4.262301250E0,4.770579529E-1,4.320016479E-1,9.804162140E0,9.825263609E0
4.272325250E0,4.601431274E-1,4.336482239E-1,9.792486420E0,9.812877904E0
4.282350250E0,4.320016479E-1,4.104464722E-1,9.765991516E0,9.784154640E0
4.292374250E0,4.161346436E-1,3.505709839E-1,9.754615173E0,9.769779181E0
4.302398250E0,4.888833618E-1,3.513194275E-1,9.776170349E0,9.794689325E0
4.312422250E0,5.589376831E-1,3.722758484E-1,9.788145447E0,9.811156503E0
4.322446250E0,5.135820007E-1,3.866459656E-1,9.786049805E0,9.807141905E0
4.332471250E0,4.278103638E-1,3.613485718E-1,9.815987549E0,9.831948233E0
4.342495250E0,4.108955383E-1,3.701802063E-1,9.882898407E0,9.898360948E0
4.352519250E0,4.393363953E-1,3.448828125E-1,9.929451599E0,9.945148047E0
4.362543250E0,4.969665527E-1,3.333567810E-1,9.943222961E0,9.961214050E0
4.372567250E0,5.263055420E-1,3.517684937E-1,9.912536774E0,9.932729931E0
4.382592250E0,5.068460083E-1,3.517684937E-1,9.885293427E0,9.904527252E0
4.392616250E0,4.794529724E-1,3.556604004E-1,9.945468292E0,9.963368357E0
4.402640250E0,4.737648010E-1,3.531156921E-1,1.002180954E1,1.003921363E1
4.412664250E0,4.923262024E-1,3.342549133E-1,1.001866608E1,1.003632310E1
4.422688250E0,4.703219604E-1,3.487747192E-1,9.926457825E0,9.943712159E0
4.432712250E0,4.598437500E-1,3.924838257E-1,9.820178833E0,9.838770865E0
4.442737250E0,4.465214539E-1,4.155358887E-1,9.708810425E0,9.727952063E0
4.452761625E0,4.373904419E-1,4.086502075E-1,9.672735443E0,9.691239154E0
4.462785625E0,4.361929321E-1,3.839515686E-1,9.675729218E0,9.693163517E0
4.472809625E0,4.938230896E-1,3.894900513E-1,9.739945679E0,9.760230815E0
4.482833625E0,5.170248413E-1,3.893403625E-1,9.844129028E0,9.865382756E0
4.492858625E0,5.116360474E-1,3.749702454E-1,9.943971405E0,9.964182929E0
4.502882625E0,4.882846069E-1,3.706292725E-1,1.000714005E1,1.002589845E1
4.512906625E0,4.427792358E-1,3.583547974E-1,1.001537292E1,1.003155852E1
4.522930625E0,4.143383789E-1,3.423381042E-1,9.962083740E0,9.976571762E0
4.532954625E0,4.064048767E-1,3.469784546E-1,9.897867279E0,9.912282060E0
4.542978625E0,4.058061218E-1,3.734733582E-1,9.846823425E0,9.862255955E0
4.553003625E0,4.725672913E-1,3.838018799E-1,9.836494904E0,9.855316114E0
4.563027625E0,5.195695496E-1,3.926335144E-1,9.833351440E0,9.854892904E0
4.573051625E0,5.005590820E-1,3.882925415E-1,9.837393036E0,9.857770145E0
4.583075625E0,4.843927002E-1,3.992198181E-1,9.852361908E0,9.872337510E0
4.593099625E0,4.942721558E-1,3.866459656E-1,9.904453583E0,9.924313621E0
4.603124625E0,4.522096252E-1,3.535647583E-1,9.903555450E0,9.920177022E0
4.613148625E0,3.818559265E-1,3.336561584E-1,9.859097900E0,9.872130053E0
4.623172625E0,4.083508301E-1,3.453318787E-1,9.821825409E0,9.836374275E0
4.633196625E0,3.995191956E-1,3.608995056E-1,9.803413696E0,9.818186398E0
4.643220625E0,4.535568237E-1,4.056564331E-1,9.798324280E0,9.817200702E0
4.653244625E0,5.176235962E-1,4.182302856E-1,9.817334747E0,9.839863429E0
4.663269625E0,5.327421570E-1,4.195774841E-1,9.826316071E0,9.849687659E0
4.673293625E0,5.010081482E-1,3.802093506E-1,9.816586304E0,9.836713627E0
4.683317625E0,4.733157349E-1,3.844006348E-1,9.783355408E0,9.802338224E0
4.693341625E0,4.796026611E-1,3.622467041E-1,9.789193268E0,9.807626941E0
4.703365625E0,4.822970581E-1,3.635939026E-1,9.819879456E0,9.838437046E0
4.713389625E0,4.541555786E-1,3.701802063E-1,9.840386810E0,9.857814324E0
4.723414625E0,4.236190796E-1,3.324586487E-1,9.888287201E0,9.902939243E0
4.733438625E0,3.965254211E-1,3.376977539E-1,9.927056580E0,9.940710463E0
4.743462625E0,3.649411011E-1,3.239263916E-1,9.938582611E0,9.950554489E0
4.753486625E0,3.933819580E-1,3.116519165E-1,9.917326813E0,9.930017492E0
4.763510625E0,4.724176025E-1,3.463796997E-1,9.896370392E0,9.913692764E0
4.773535625E0,4.921765137E-1,3.529660034E-1,9.890532532E0,9.909059314E0
4.783559625E0,5.014572144E-1,3.565585327E-1,9.885443115E0,9.904573636E0
4.793583625E0,4.974156189E-1,3.685336304E-1,9.862540741E0,9.881950678E0
4.803607625E0,4.564009094E-1,3.724255371E-1,9.802814941E0,9.820498121E0
4.813631625E0,3.870950317E-1,3.749702454E-1,9.847272491E0,9.862008962E0
4.823655625E0,4.355941772E-1,3.577560425E-1,9.810598755E0,9.826778699E0
4.833680625E0,5.031037903E-1,4.189787292E-1,9.825268250E0,9.847058077E0
4.843704625E0,4.788542175E-1,3.980223083E-1,9.866732025E0,9.886360502E0
4.853728625E0,4.674778748E-1,3.969744873E-1,9.900861053E0,9.919837393E0
4.863752625E0,4.540058899E-1,3.823049927E-1,9.924362183E0,9.942094507E0
4.873776625E0,4.611909485E-1,3.457809448E-1,9.947264557E0,9.963951712E0
4.883801625E0,4.698728943E-1,3.595523071E-1,9.985734558E0,1.000324713E1
4.893825625E0,4.799020386E-1,3.800596619E-1,1.000938538E1,1.002808790E1
4.903849625E0,4.884342957E-1,4.041595459E-1,9.950258331E0,9.970433986E0
4.913873625E0,4.737648010E-1,4.040098572E-1,9.868228912E0,9.887852088E0
4.923897625E0,4.442761230E-1,3.884422302E-1,9.780960388E0,9.798747612E0
4.933921625E0,4.400848389E-1,3.930825806E-1,9.729766846E0,9.747643379E0
4.943946625E0,4.673281860E-1,3.791615295E-1,9.724078674E0,9.742682647E0
4.953970625E0,5.209167480E-1,3.948788452E-1,9.759105835E0,9.780972869E0
4.963994625E0,5.257067871E-1,4.212240601E-1,9.794132996E0,9.817272456E0
4.974018625E0,5.068460083E-1,4.176315308E-1,9.789342957E0,9.811347741E0
4.984042625E0,4.993615723E-1,4.143383789E-1,9.796827393E0,9.818292379E0
4.994066625E0,4.746629333E-1,3.971241760E-1,9.815388794E0,9.834880258E0
5.004091625E0,4.450245667E-1,3.749702454E-1,9.865235138E0,9.882384018E0
5.014115625E0,4.266128540E-1,3.603007507E-1,9.889784088E0,9.905536052E0
5.024139625E0,4.305047607E-1,3.420387268E-1,9.922266541E0,9.937489529E0
5.034163625E0,4.225712585E-1,3.499722290E-1,9.973609772E0,9.988690550E0
5.044187625E0,4.575984192E-1,3.737727356E-1,1.000714005E1,1.002456753E1
5.054211625E0,5.074447632E-1,4.122427368E-1,9.951605530E0,9.973058552E0
5.064236625E0,5.483097839E-1,4.111949158E-1,9.870623932E0,9.894389404E0
5.074260625E0,5.429209900E-1,3.971241760E-1,9.872120819E0,9.895010878E0
5.084284625E0,4.930746460E-1,4.013154602E-1,9.866133270E0,9.886595087E0
5.094308625E0,4.571493530E-1,3.956272888E-1,9.837093658E0,9.855654120E0
5.104332625E0,4.849914551E-1,3.920347595E-1,9.816137238E0,9.835926913E0
5.114356625E0,5.035528564E-1,3.993695068E-1,9.804311829E0,9.825354544E0
5.124381625E0,4.884342957E-1,3.968247986E-1,9.801318054E0,9.821500577E0
5.134405625E0,4.676275635E-1,4.200265503E-1,9.801467743E0,9.821602097E0
5.144429625E0,4.471202087E-1,4.234693909E-1,9.784103851E0,9.803465254E0
5.154453625E0,4.420307922E-1,4.281097412E-1,9.802814941E0,9.822110259E0
5.164477625E0,4.728666687E-1,4.279600525E-1,9.858798523E0,9.879405904E0
5.174502625E0,4.710704041E-1,4.201762390E-1,9.888885956E0,9.909012102E0
5.184526625E0,4.951702881E-1,3.841012573E-1,9.910291443E0,9.930085794E0
5.194550625E0,5.207670593E-1,3.619473267E-1,9.906249847E0,9.926529617E0
5.204574625E0,5.147795105E-1,3.842509460E-1,9.930948486E0,9.951702597E0
5.214598625E0,4.650828552E-1,3.911366272E-1,9.937534790E0,9.956098012E0
5.224622625E0,4.288581848E-1,3.820056152E-1,9.923464050E0,9.940069738E0
5.234647625E0,4.748126221E-1,3.987707520E-1,9.916129303E0,9.935496238E0
5.244671625E0,4.992118835E-1,4.061054993E-1,9.915380859E0,9.936242336E0
5.254695625E0,4.697232056E-1,4.167333984E-1,9.847721558E0,9.867721444E0
5.264719625E0,4.810995483E-1,4.376898193E-1,9.794282684E0,9.815854647E0
5.274743625E0,4.851411438E-1,4.158352661E-1,9.763446808E0,9.784333113E0
5.284767625E0,4.519102478E-1,4.128414917E-1,9.723180542E0,9.742427871E0
5.294792625E0,4.382885742E-1,3.936813354E-1,9.717642059E0,9.735484018E0
5.304816625E0,4.710704041E-1,4.354444885E-1,9.764494629E0,9.785544164E0
5.314840625E0,5.370831299E-1,4.059558105E-1,9.801916809E0,9.825010511E0
5.324864625E0,5.370831299E-1,4.272116089E-1,9.819879456E0,9.843830584E0
5.334888625E0,4.722679138E-1,4.010160828E-1,9.853260040E0,9.872719195E0
5.344912625E0,4.824467468E-1,3.900888062E-1,9.919871521E0,9.939254254E0
5.354937625E0,5.284011841E-1,4.168830872E-1,1.001716919E1,1.003975487E1
5.364961625E0,5.146298218E-1,4.466711426E-1,1.005279510E1,1.007586465E1
5.374985625E0,4.825964355E-1,4.219725037E-1,1.001178040E1,1.003228323E1
5.385009625E0,4.266128540E-1,4.004173279E-1,9.920470276E0,9.937709145E0
5.395033625E0,3.749702454E-1,4.026626587E-1,9.807904358E0,9.823325699E0
5.405057625E0,4.433779907E-1,4.242178345E-1,9.780211945E0,9.799443377E0
5.415082625E0,5.072950745E-1,4.324507141E-1,9.785301361E0,9.807980661E0
5.425106625E0,5.390290833E-1,4.700225830E-1,9.832602997E0,9.858577751E0
5.435130625E0,5.143304443E-1,4.574487305E-1,9.852361908E0,9.876377388E0
5.445154625E0,4.887336731E-1,4.337979126E-1,9.796528015E0,9.818299363E0
5.455178583E0,4.891827393E-1,4.281097412E-1,9.769883423E0,9.791486087E0
5.465202583E0,4.911286926E-1,4.149371338E-1,9.783056030E0,9.804160622E0
5.475227583E0,4.855902100E-1,4.132905579E-1,9.791438599E0,9.812180021E0
5.485251583E0,4.305047607E-1,3.784130859E-1,9.839937744E0,9.856617352E0
5.495275583E0,4.727169800E-1,3.665876770E-1,9.924511871E0,9.942524013E0
5.505299583E0,5.379812622E-1,4.026626587E-1,9.963730316E0,9.986364848E0
5.515323583E0,4.974156189E-1,4.195774841E-1,9.936486969E0,9.957772886E0
5.525347583E0,4.725672913E-1,4.406835938E-1,9.868827667E0,9.889958615E0
5.535372583E0,5.060975647E-1,4.640350342E-1,9.843081207E0,9.867001110E0
5.545396583E0,5.117857361E-1,4.776567078E-1,9.829309845E0,9.854207863E0
5.555420583E0,5.054988098E-1,4.559518433E-1,9.827363892E0,9.850913774E0
5.565444583E0,4.751119995E-1,4.537065125E-1,9.867181091E0,9.889026428E0
5.575468583E0,4.671784973E-1,4.288581848E-1,9.921069031E0,9.941317106E0
5.585492583E0,5.062472534E-1,4.177812195E-1,9.941726074E0,9.963370151E0
5.595517583E0,5.134323120E-1,4.079017639E-1,9.927505646E0,9.949138904E0
5.605541583E0,5.279521179E-1,4.049079895E-1,9.906848602E0,9.929165783E0
5.615565583E0,5.261558533E-1,4.093986511E-1,9.866582336E0,9.889079545E0
5.625589583E0,4.969665527E-1,4.543052673E-1,9.814490662E0,9.837560469E0
5.635613583E0,4.828958130E-1,4.882846069E-1,9.789342957E0,9.813401334E0
5.645637583E0,5.116360474E-1,5.031037903E-1,9.737251282E0,9.763654408E0
5.655661583E0,5.233117676E-1,5.131329346E-1,9.668544159E0,9.696283142E0
5.665686583E0,5.063969421E-1,5.093907166E-1,9.645342407E0,9.672049778E0
5.675710583E0,5.074447632E-1,4.941224670E-1,9.677525482E0,9.703409538E0
5.685734583E0,5.185217285E-1,4.510121155E-1,9.751172333E0,9.775358744E0
5.695758583E0,5.104385376E-1,4.698728943E-1,9.811197510E0,9.835696448E0
5.705782583E0,4.571493530E-1,4.390370178E-1,9.815688171E0,9.836131013E0
5.715806583E0,4.107458496E-1,3.923341370E-1,9.854307861E0,9.870664702E0
5.725831583E0,4.246669006E-1,3.725752258E-1,9.890382843E0,9.906504280E0
5.735855583E0,4.608915710E-1,4.062551880E-1,9.978848877E0,9.997744207E0
5.745879583E0,5.231620789E-1,4.590953064E-1,9.981543274E0,1.000578199E1
5.755903583E0,5.051994324E-1,4.721182251E-1,9.946665802E0,9.970671124E0
5.765927583E0,5.010081482E-1,4.899311829E-1,9.897567902E0,9.922343075E0
5.775951583E0,5.141807556E-1,4.713697815E-1,9.871671753E0,9.896285895E0
5.785976583E0,5.638774109E-1,4.537065125E-1,9.871222687E0,9.897719165E0
5.796000583E0,5.462141418E-1,4.360432434E-1,9.834399261E0,9.859203438E0
5.806024583E0,4.531077576E-1,3.929328918E-1,9.774972839E0,9.793354732E0
5.816048583E0,4.575984192E-1,3.989204407E-1,9.734556885E0,9.753467669E0
5.826072583E0,5.165757751E-1,4.339476013E-1,9.733509064E0,9.756862187E0
5.836096583E0,5.352868652E-1,4.569996643E-1,9.736053772E0,9.761461149E0
5.846121583E0,4.794529724E-1,4.683760071E-1,9.762099609E0,9.785082525E0
5.856145583E0,5.016069031E-1,4.784051514E-1,9.798324280E0,9.822812208E0
5.866169583E0,5.330415344E-1,4.803511047E-1,9.839338989E0,9.865468170E0
5.876193583E0,5.069956970E-1,4.381388855E-1,9.860145721E0,9.882888443E0
5.886217583E0,5.014572144E-1,4.278103638E-1,9.902058563E0,9.923973238E0
5.896241583E0,4.948709106E-1,4.126918030E-1,9.927355957E0,9.948246481E0
5.906266583E0,4.644841003E-1,4.053570557E-1,9.918075256E0,9.937216744E0
5.916290583E0,4.212240601E-1,4.034111023E-1,9.913584595E0,9.930726547E0
5.926314583E0,4.715194702E-1,4.102967834E-1,9.926906891E0,9.946564959E0
5.936338583E0,4.986131287E-1,4.258644104E-1,9.893226929E0,9.914933919E0
5.946362583E0,5.212161255E-1,4.519102478E-1,9.873767395E0,9.897836718E0
5.956386583E0,5.545967102E-1,4.567002869E-1,9.849218445E0,9.875386404E0
5.966410583E0,5.313949585E-1,4.593946838E-1,9.817484436E0,9.842582219E0
5.976435583E0,5.251080322E-1,4.644841003E-1,9.804012451E0,9.829045939E0
5.986459583E0,4.983137512E-1,4.459226990E-1,9.814191284E0,9.836946386E0
5.996483583E0,4.505630493E-1,4.529580688E-1,9.859546967E0,9.880224919E0
6.006507583E0,4.457730103E-1,4.346960449E-1,9.883796539E0,9.903388726E0
6.016531583E0,4.343966675E-1,4.207749939E-1,9.858648834E0,9.877181222E0
6.026555583E0,4.366419983E-1,3.900888062E-1,9.819580078E0,9.837020810E0
6.036580583E0,4.730163574E-1,3.742218018E-1,9.840386810E0,9.858853838E0
6.046604583E0,5.198689270E-1,3.909869385E-1,9.880503387E0,9.901892833E0
6.056628583E0,5.641767883E-1,4.296066284E-1,9.916877747E0,9.942199030E0
6.066652583E0,5.875282288E-1,4.559518433E-1,9.936786346E0,9.964577482E0
6.076676583E0,5.189707947E-1,4.212240601E-1,9.868827667E0,9.891436696E0
6.086700583E0,4.876858521E-1,4.059558105E-1,9.814191284E0,9.834682922E0
6.096725583E0,5.146298218E-1,4.171824646E-1,9.817484436E0,9.839811264E0
6.106749583E0,4.903802490E-1,3.944297791E-1,9.871222687E0,9.891263062E0
6.116773583E0,4.993615723E-1,4.026626587E-1,9.907746735E0,9.928491555E0
6.126797583E0,5.414241028E-1,4.330494690E-1,9.920470276E0,9.944667033E0
6.136821583E0,5.493576050E-1,4.540058899E-1,9.882000275E0,9.907665949E0
6.146845583E0,4.810995483E-1,4.318519592E-1,9.845326538E0,9.866529660E0
6.156869583E0,4.715194702E-1,4.067042542E-1,9.844428406E0,9.864102067E0
6.166894583E0,5.258564758E-1,4.218228149E-1,9.900112610E0,9.923038305E0
6.176918583E0,5.400769043E-1,4.255650330E-1,9.912686462E0,9.936505501E0
6.186942583E0,4.846920776E-1,3.655398560E-1,9.894274750E0,9.912881449E0
6.196966583E0,5.424719238E-1,3.363505554E-1,9.908345490E0,9.928883010E0
6.206990583E0,6.152206421E-1,3.704795837E-1,9.930649109E0,9.956582912E0
6.217014583E0,5.487588501E-1,3.839515686E-1,9.895023193E0,9.917662985E0
6.227039583E0,4.740641785E-1,3.746708679E-1,9.865684204E0,9.884171180E0
6.237063583E0,4.601431274E-1,3.944297791E-1,9.848170624E0,9.866801467E0
6.247087583E0,5.080435181E-1,4.302053833E-1,9.825268250E0,9.847795746E0
6.257111583E0,5.278024292E-1,4.433779907E-1,9.811197510E0,9.835382861E0
6.267135583E0,5.044509888E-1,4.590953064E-1,9.800719299E0,9.824425585E0
6.277159583E0,5.451663208E-1,4.643344116E-1,9.818232880E0,9.844313569E0
6.287183583E0,5.757028198E-1,4.351451111E-1,9.837093658E0,9.863528610E0
6.297208583E0,5.444178772E-1,3.983216858E-1,9.862690430E0,9.885732826E0
6.307232583E0,4.884342957E-1,4.179309082E-1,9.882599030E0,9.903484129E0
6.317256583E0,4.599934387E-1,4.025129700E-1,9.862241364E0,9.881164677E0
6.327280583E0,4.805007935E-1,3.921844482E-1,9.818981323E0,9.838550903E0
6.337304583E0,4.888833618E-1,3.992198181E-1,9.768536224E0,9.788906138E0
6.347328583E0,5.092410278E-1,4.221221924E-1,9.749525757E0,9.771937682E0
6.357352583E0,5.701643372E-1,4.346960449E-1,9.745484161E0,9.771822223E0
6.367377583E0,5.788462830E-1,4.722679138E-1,9.772278442E0,9.800792109E0
6.377401583E0,5.382806396E-1,4.581971741E-1,9.785451050E0,9.810950155E0
6.387425583E0,4.890330505E-1,4.460723877E-1,9.779014435E0,9.801390576E0
6.397449583E0,4.763095093E-1,4.230203247E-1,9.783804474E0,9.804521759E0
6.407473583E0,4.761598206E-1,3.749702454E-1,9.823621674E0,9.842300221E0
6.417497583E0,4.848417664E-1,3.980223083E-1,9.921518097E0,9.941328616E0
6.427522583E0,4.465214539E-1,3.847000122E-1,9.983788605E0,1.000117045E1
6.437546583E0,4.489164734E-1,3.817062378E-1,9.940378876E0,9.957828972E0
6.447570583E0,4.656816101E-1,4.296066284E-1,9.922416229E0,9.942623650E0
6.457594458E0,4.831951904E-1,4.236190796E-1,9.893825684E0,9.914671824E0
6.467618458E0,5.261558533E-1,4.165837097E-1,9.871072998E0,9.893859919E0
6.477642458E0,5.275030518E-1,4.113446045E-1,9.907597046E0,9.930153225E0
6.487666458E0,5.324427795E-1,4.041595459E-1,9.938283234E0,9.960738621E0
6.497691458E0,5.203179932E-1,4.234693909E-1,9.893825684E0,9.916543944E0
6.507715458E0,4.740641785E-1,4.120930481E-1,9.835596771E0,9.855633991E0
6.517739458E0,4.439767456E-1,4.043092346E-1,9.755962372E0,9.774424950E0
6.527763458E0,4.849914551E-1,4.372407532E-1,9.727521515E0,9.749413880E0
6.537787458E0,5.516029358E-1,4.408332825E-1,9.742789764E0,9.768344393E0
6.547811458E0,5.839356995E-1,4.514611816E-1,9.787696381E0,9.815487687E0
6.557836458E0,5.998027039E-1,4.478686523E-1,9.852361908E0,9.880758310E0
6.567860458E0,5.493576050E-1,4.134402466E-1,9.871821442E0,9.895735707E0
6.577884458E0,4.794529724E-1,3.938310242E-1,9.857301636E0,9.876809888E0
6.587908458E0,4.502636719E-1,3.742218018E-1,9.877509613E0,9.894845905E0
6.597932458E0,4.760101318E-1,3.537144470E-1,9.925110626E0,9.942812504E0
6.607956458E0,5.285508728E-1,3.664379883E-1,9.962981873E0,9.983719278E0
6.617980458E0,5.478607178E-1,3.739224243E-1,9.950108643E0,9.972192906E0
6.628005458E0,5.442681885E-1,3.764671326E-1,9.919871521E0,9.941921663E0
6.638029458E0,5.153782654E-1,4.096980286E-1,9.890831909E0,9.912720267E0
6.648053458E0,4.902305603E-1,3.694317627E-1,9.881700897E0,9.900748378E0
6.658077458E0,5.379812622E-1,3.882925415E-1,9.865085449E0,9.887371029E0
6.668101458E0,5.459147644E-1,4.252656555E-1,9.880503387E0,9.904707012E0
6.678125458E0,4.673281860E-1,3.945794678E-1,9.849218445E0,9.868190947E0
6.688149458E0,4.781057739E-1,3.912863159E-1,9.812844086E0,9.832273347E0
6.698174458E0,5.325924683E-1,3.933819580E-1,9.818681946E0,9.840981620E0
6.708198458E0,5.252577209E-1,4.107458496E-1,9.830357666E0,9.852945736E0
6.718222458E0,4.029620361E-1,3.787124634E-1,9.807305603E0,9.822883727E0
6.728246458E0,3.966751099E-1,3.388952637E-1,9.782756653E0,9.796659067E0
6.738270458E0,5.390290833E-1,3.787124634E-1,9.818831635E0,9.840905962E0
6.748294458E0,5.789959717E-1,4.087998962E-1,9.836045837E0,9.861549138E0
6.758318458E0,5.346881104E-1,4.216731262E-1,9.864486694E0,9.887962244E0
6.768343458E0,5.342390442E-1,4.613406372E-1,9.911938019E0,9.937039893E0
6.778367458E0,5.429209900E-1,4.516108704E-1,9.879605255E0,9.904812748E0
6.788391458E0,5.300477600E-1,4.082011414E-1,9.785151672E0,9.807995313E0
6.798415458E0,5.390290833E-1,3.845503235E-1,9.766889648E0,9.789308694E0
6.808439458E0,5.761518860E-1,3.896397400E-1,9.780960388E0,9.805659398E0
6.818463458E0,5.685177612E-1,3.863465881E-1,9.821825409E0,9.845848389E0
6.828487458E0,5.526507568E-1,3.790118408E-1,9.860594788E0,9.883339638E0
6.838512458E0,5.301974487E-1,4.031117249E-1,9.908794556E0,9.931153908E0
6.848536458E0,4.571493530E-1,3.851490784E-1,9.937534790E0,9.955497127E0
6.858560458E0,4.679269409E-1,3.561094666E-1,9.938432922E0,9.955813303E0
6.868584458E0,5.421725464E-1,3.799099731E-1,9.952653351E0,9.974647431E0
6.878608458E0,6.033952332E-1,3.969744873E-1,9.936187592E0,9.962404248E0
6.888632458E0,5.843847656E-1,3.787124634E-1,9.928104401E0,9.952496454E0
6.898657458E0,5.177732849E-1,3.817062378E-1,9.875713348E0,9.896640994E0
6.908681458E0,5.385800171E-1,3.890409851E-1,9.824370117E0,9.846810119E0
6.918705458E0,5.828878784E-1,4.364923096E-1,9.809550934E0,9.836542753E0
6.928729458E0,5.099894714E-1,3.912863159E-1,9.763746185E0,9.784882923E0
6.938753458E0,5.017565918E-1,4.355941772E-1,9.739346924E0,9.761986502E0
6.948777458E0,5.156776428E-1,4.239184570E-1,9.754315796E0,9.777131836E0
6.958801458E0,5.156776428E-1,3.855981445E-1,9.837542725E0,9.858593014E0
6.968826458E0,5.062472534E-1,3.658392334E-1,9.938283234E0,9.957891256E0
6.978850458E0,5.203179932E-1,3.552113342E-1,1.000534378E1,1.002515886E1
6.988874458E0,5.731581116E-1,3.357518005E-1,1.001207977E1,1.003409093E1
6.998898458E0,6.002517700E-1,3.805087280E-1,9.949210510E0,9.974561587E0
7.008922458E0,5.971083069E-1,4.041595459E-1,9.885742493E0,9.912002214E0
7.018946458E0,5.748046875E-1,4.119433594E-1,9.840237122E0,9.865615255E0
7.028970458E0,5.429209900E-1,4.093986511E-1,9.819729767E0,9.843244544E0
7.038995458E0,5.388793945E-1,3.987707520E-1,9.828561401E0,9.851397278E0
7.049019458E0,5.438191223E-1,3.869453430E-1,9.828112335E0,9.850749109E0
7.059043458E0,5.372328186E-1,3.993695068E-1,9.807455292E0,9.830274381E0
7.069067458E0,4.831951904E-1,4.219725037E-1,9.787846069E0,9.808846470E0
7.079091458E0,4.339476013E-1,4.058061218E-1,9.761351166E0,9.779415407E0
7.089115458E0,4.819976807E-1,4.062551880E-1,9.815538483E0,9.835759287E0
7.099139458E0,5.526507568E-1,4.110452271E-1,9.870025177E0,9.894027392E0
7.109164458E0,5.634283447E-1,3.887416077E-1,9.888137512E0,9.911802813E0
7.119188458E0,5.758525085E-1,3.875440979E-1,9.872420197E0,9.896791252E0
7.129212458E0,5.929170227E-1,3.920347595E-1,9.859097900E0,9.884687818E0
7.139236458E0,5.399272156E-1,4.032614136E-1,9.828262024E0,9.851338771E0
7.149260458E0,4.852908325E-1,3.864962769E-1,9.807006226E0,9.826609673E0
7.159284458E0,4.956193542E-1,3.838018799E-1,9.842183075E0,9.862125030E0
7.169308458E0,5.146298218E-1,3.585044861E-1,9.877210236E0,9.897103180E0
7.179333458E0,5.340893555E-1,3.742218018E-1,9.901459808E0,9.922912865E0
7.189357458E0,5.233117676E-1,3.908372498E-1,9.920919342E0,9.942396570E0
7.199381458E0,5.535488892E-1,4.074526978E-1,9.916578369E0,9.940370246E0
7.209405458E0,5.815406799E-1,4.233197021E-1,9.887538757E0,9.913667929E0
7.219429458E0,5.728587341E-1,4.171824646E-1,9.847122803E0,9.872590128E0
7.229453458E0,5.078938293E-1,3.873944092E-1,9.798174591E0,9.818974279E0
7.239477458E0,4.944218445E-1,3.847000122E-1,9.815388794E0,9.835359894E0
7.249502458E0,4.712200928E-1,3.806584167E-1,9.824519806E0,9.843177263E0
7.259526458E0,4.537065125E-1,4.107458496E-1,9.875863037E0,9.894808360E0
7.269550458E0,4.954696655E-1,3.954776001E-1,9.927805023E0,9.948025196E0
7.279574458E0,5.382806396E-1,3.685336304E-1,9.951156464E0,9.972516134E0
7.289598458E0,5.644761658E-1,3.872447205E-1,9.970466309E0,9.993937674E0
7.299622458E0,5.616320801E-1,4.111949158E-1,9.945917358E0,9.970244929E0
7.309646458E0,5.272036743E-1,4.197271729E-1,9.853409729E0,9.876426373E0
7.319671458E0,5.158273315E-1,4.279600525E-1,9.778864746E0,9.801807148E0
7.329695458E0,5.162763977E-1,4.243675232E-1,9.753866730E0,9.776734899E0
7.339719458E0,5.099894714E-1,4.144880676E-1,9.786798248E0,9.808838340E0
7.349743458E0,5.043013000E-1,3.870950317E-1,9.821526031E0,9.842079859E0
7.359767458E0,4.839436340E-1,3.866459656E-1,9.871821442E0,9.891236279E0
7.369791458E0,5.119354248E-1,3.884422302E-1,9.880653076E0,9.901528693E0
7.379815458E0,5.254074097E-1,3.845503235E-1,9.859247589E0,9.880723401E0
7.389840458E0,5.016069031E-1,3.921844482E-1,9.846673737E0,9.867238813E0
7.399864458E0,5.044509888E-1,3.968247986E-1,9.853709106E0,9.874589808E0
7.409888458E0,5.227130127E-1,4.135899353E-1,9.836644592E0,9.859201913E0
7.419912458E0,5.034031677E-1,4.023632813E-1,9.849368134E0,9.870428744E0
7.429936458E0,4.703219604E-1,4.001179504E-1,9.860744476E0,9.880059653E0
7.439960458E0,4.565505981E-1,3.894900513E-1,9.931547241E0,9.949661881E0
7.449985083E0,4.418811035E-1,3.472778320E-1,9.965825958E0,9.981660575E0
7.460010083E0,5.066963196E-1,4.164340210E-1,9.940079498E0,9.961693575E0
7.470034083E0,5.164260864E-1,4.587959290E-1,9.907147980E0,9.931201876E0
7.480058083E0,4.712200928E-1,4.388873291E-1,9.882449341E0,9.903407264E0
7.490082083E0,4.822970581E-1,4.498146057E-1,9.866282959E0,9.888300312E0
7.500106083E0,4.655319214E-1,4.345463562E-1,9.792037354E0,9.812723681E0
7.510130083E0,4.523593140E-1,3.987707520E-1,9.722132721E0,9.740816788E0
7.520154083E0,4.932243347E-1,4.209246826E-1,9.741592255E0,9.763148441E0
7.530178083E0,5.592370605E-1,4.622387695E-1,9.768835602E0,9.795741921E0
7.540203083E0,5.809419250E-1,4.843927002E-1,9.797875214E0,9.827028468E0
7.550227083E0,5.059478760E-1,4.739144897E-1,9.822873230E0,9.847305047E0
7.560251083E0,4.067042542E-1,4.303550720E-1,9.859247589E0,9.877012547E0
7.570275083E0,4.038601685E-1,4.007167053E-1,9.868977356E0,9.885362460E0
7.580299083E0,4.349954224E-1,3.978726196E-1,9.840985565E0,9.858626706E0
7.590323083E0,4.510121155E-1,4.110452271E-1,9.821526031E0,9.840464608E0
7.600347083E0,4.903802490E-1,3.986210632E-1,9.787247314E0,9.807628742E0
7.610372083E0,5.493576050E-1,3.842509460E-1,9.883197784E0,9.905909399E0
7.620396083E0,5.746549988E-1,4.004173279E-1,1.001492386E1,1.003938555E1
7.630420083E0,5.047503662E-1,3.950285339E-1,1.000055374E1,1.002107258E1
7.640444083E0,4.417314148E-1,4.206253052E-1,9.917925568E0,9.936664423E0
7.650468083E0,4.724176025E-1,4.355941772E-1,9.838440857E0,9.859403591E0
7.660492083E0,4.885839844E-1,4.369413757E-1,9.802814941E0,9.824704212E0
7.670516083E0,4.740641785E-1,4.342469788E-1,9.789792023E0,9.810878408E0
7.680541083E0,4.908293152E-1,4.204756165E-1,9.793983307E0,9.815285130E0
7.690565083E0,4.851411438E-1,3.944297791E-1,9.848170624E0,9.867998856E0
7.700589083E0,4.894821167E-1,3.502716064E-1,9.908794556E0,9.927058602E0
7.710613083E0,5.014572144E-1,3.742218018E-1,9.969717865E0,9.989333091E0
7.720637083E0,4.987628174E-1,3.915856934E-1,9.945767670E0,9.965961983E0
7.730661083E0,4.601431274E-1,4.038601685E-1,9.866133270E0,9.885111048E0
7.740685083E0,4.662803650E-1,4.406835938E-1,9.788893890E0,9.809896177E0
7.750709083E0,4.602928162E-1,4.519102478E-1,9.728120270E0,9.749482875E0
7.760734083E0,4.433779907E-1,4.526586914E-1,9.715396729E0,9.736037054E0
7.770758083E0,4.236190796E-1,4.706213379E-1,9.718689880E0,9.739295178E0
7.780782083E0,3.986210632E-1,4.225712585E-1,9.755962372E0,9.773242401E0
7.790806083E0,4.092489624E-1,4.255650330E-1,9.826316071E0,9.844037679E0
7.800830083E0,4.363426208E-1,4.162843323E-1,9.855655060E0,9.874088524E0
7.810854083E0,4.587959290E-1,3.975732422E-1,9.862540741E0,9.881207824E0
7.820878083E0,4.263134766E-1,3.761677551E-1,9.855655060E0,9.872040418E0
7.830903083E0,4.052073669E-1,3.622467041E-1,9.874366150E0,9.889313553E0
7.840927083E0,4.531077576E-1,3.706292725E-1,9.883796539E0,9.901116438E0
7.850951083E0,5.071453857E-1,3.885919189E-1,9.889634399E0,9.910250687E0
7.860975083E0,4.465214539E-1,3.817062378E-1,9.912985840E0,9.930376092E0
7.870999083E0,3.983216858E-1,4.007167053E-1,9.920021210E0,9.936098573E0
7.881023083E0,3.935316467E-1,3.965254211E-1,9.888586578E0,9.904354804E0
7.891047083E0,4.315525818E-1,3.903881836E-1,9.852511597E0,9.869682129E0
7.901072083E0,4.748126221E-1,3.879931641E-1,9.929900665E0,9.948814650E0
7.911096083E0,4.719685364E-1,3.623963928E-1,9.931547241E0,9.949357570E0
7.921120083E0,4.637356567E-1,3.481759644E-1,9.886490936E0,9.903483240E0
7.931144083E0,4.788542175E-1,3.623963928E-1,9.925559692E0,9.943709957E0
7.941168083E0,4.538562012E-1,3.867956543E-1,9.926158447E0,9.944054397E0
7.951192083E0,4.282594299E-1,3.842509460E-1,9.878258057E0,9.895000615E0
7.961216083E0,4.339476013E-1,3.805087280E-1,9.861343231E0,9.878217842E0
7.971240083E0,4.781057739E-1,3.552113342E-1,9.844129028E0,9.862131440E0
7.981265083E0,4.778063965E-1,3.820056152E-1,9.873318329E0,9.892251618E0
7.991289083E0,4.586462402E-1,3.664379883E-1,9.857601013E0,9.875066122E0
8.001313083E0,4.860392761E-1,3.646417236E-1,9.877509613E0,9.896180774E0
8.011337083E0,4.790039062E-1,3.552113342E-1,9.872719574E0,9.890713403E0
8.021361083E0,4.948709106E-1,3.746708679E-1,9.876461792E0,9.895947302E0
8.031385083E0,4.790039062E-1,4.019142151E-1,9.835297394E0,9.855153708E0
8.041409083E0,4.647834778E-1,4.147874451E-1,9.785001984E0,9.804811886E0
8.051434083E0,4.596940613E-1,4.293072510E-1,9.750124512E0,9.770391565E0
8.061458083E0,4.421804810E-1,4.080514526E-1,9.716743927E0,9.735355264E0
8.071482083E0,4.266128540E-1,3.962260437E-1,9.762099609E0,9.779446937E0
8.081506083E0,4.532574463E-1,3.791615295E-1,9.877659302E0,9.895320058E0
8.091530083E0,4.833448792E-1,3.646417236E-1,9.955198059E0,9.973592846E0
8.101554083E0,4.715194702E-1,3.326083374E-1,9.988728333E0,1.000538118E1
8.111578083E0,4.740641785E-1,3.333567810E-1,9.963131561E0,9.979972650E0
8.121602083E0,4.409829712E-1,3.565585327E-1,9.938732300E0,9.954898276E0
8.131627083E0,4.650828552E-1,4.107458496E-1,9.908644867E0,9.928054055E0
8.141651083E0,4.480183411E-1,4.309538269E-1,9.880653076E0,9.900189233E0
8.151675083E0,4.153862000E-1,4.206253052E-1,9.789792023E0,9.807624544E0
8.161699083E0,4.131408691E-1,4.055067444E-1,9.729617157E0,9.746823643E0
8.171723083E0,4.701722717E-1,3.930825806E-1,9.732910309E0,9.752185343E0
8.181747083E0,4.806504822E-1,4.014651489E-1,9.797875214E0,9.817869313E0
8.191771083E0,4.644841003E-1,3.873944092E-1,9.858499146E0,9.877035249E0
8.201796083E0,4.736151123E-1,4.023632813E-1,9.863289185E0,9.882847819E0
8.211820083E0,4.728666687E-1,3.927832031E-1,9.895921326E0,9.914995734E0
8.221844083E0,3.936813354E-1,3.477268982E-1,9.912087708E0,9.925995250E0
8.231868083E0,3.918850708E-1,3.604504395E-1,9.940378876E0,9.954628603E0
8.241892083E0,4.902305603E-1,3.526666260E-1,9.954449615E0,9.972751220E0
8.251916083E0,5.477110291E-1,3.559597778E-1,9.973609772E0,9.994978070E0
8.261940083E0,5.034031677E-1,3.399430847E-1,9.985435181E0,1.000389383E1
8.271964083E0,4.947212219E-1,3.629951477E-1,9.914632416E0,9.933602091E0
8.281989083E0,4.960684204E-1,3.841012573E-1,9.814640350E0,9.834672484E0
8.292013083E0,4.727169800E-1,3.811074829E-1,9.701475677E0,9.720459587E0
8.302037083E0,4.754113770E-1,4.158352661E-1,9.639354858E0,9.660025726E0
8.312061083E0,4.802014160E-1,4.450245667E-1,9.618847504E0,9.641103026E0
8.322085083E0,4.828958130E-1,4.257147217E-1,9.759554901E0,9.780763429E0
8.332109083E0,4.736151123E-1,3.555107117E-1,9.810748444E0,9.828605403E0
8.342133083E0,5.462141418E-1,4.188290405E-1,9.884544983E0,9.908481073E0
8.352158083E0,4.962181091E-1,3.594026184E-1,1.000803818E1,1.002677569E1
8.362182083E0,4.845423889E-1,3.106040955E-1,1.012225067E1,1.013860024E1
8.372206083E0,5.306465149E-1,3.614982605E-1,1.006551865E1,1.008597701E1
8.382230083E0,5.062472534E-1,3.517684937E-1,9.969717865E0,9.988758765E0
8.392254083E0,4.053570557E-1,3.363505554E-1,9.985884247E0,9.999766509E0
8.402278083E0,3.670367432E-1,3.635939026E-1,9.948462067E0,9.961867997E0
8.412302083E0,3.861968994E-1,3.827540588E-1,9.907896423E0,9.922805060E0
8.422326083E0,4.691244507E-1,4.622387695E-1,9.840686188E0,9.862699786E0
8.432351083E0,5.355862427E-1,5.044509888E-1,9.700278168E0,9.728140622E0
8.442375083E0,5.316943359E-1,5.031037903E-1,9.607171783E0,9.635017487E0
8.452398458E0,5.255570984E-1,5.230123901E-1,9.604477386E0,9.633054453E0
8.462422458E0,4.830455017E-1,4.463717651E-1,9.584868164E0,9.607407477E0
8.472446458E0,5.031037903E-1,4.478686523E-1,9.640702057E0,9.664203842E0
8.482470458E0,4.659809875E-1,4.156855774E-1,9.695039063E0,9.715128162E0
8.492494458E0,4.108955383E-1,3.638932800E-1,9.791438599E0,9.806810047E0
8.502518458E0,4.373904419E-1,3.635939026E-1,9.934990082E0,9.951258154E0
8.512543458E0,4.802014160E-1,3.598516846E-1,1.006821304E1,1.008607954E1
8.522567458E0,4.986131287E-1,3.622467041E-1,1.013108231E1,1.014981115E1
8.532591458E0,5.710624695E-1,3.897894287E-1,1.013721954E1,1.016077104E1
8.542615458E0,5.276527405E-1,4.043092346E-1,1.003079086E1,1.005279308E1
8.552639458E0,5.069956970E-1,4.079017639E-1,9.911788330E0,9.933125207E0
8.562663458E0,5.086422729E-1,4.119433594E-1,9.797575836E0,9.819414777E0
8.572687458E0,4.707710266E-1,4.004173279E-1,9.710457001E0,9.730104550E0
8.582712458E0,4.436773682E-1,4.087998962E-1,9.720186768E0,9.738890992E0
8.592736458E0,5.284011841E-1,4.221221924E-1,9.778265991E0,9.801626434E0
8.602760458E0,5.777984619E-1,4.320016479E-1,9.833052063E0,9.859482205E0
8.612784458E0,5.345384216E-1,4.089495850E-1,9.861941986E0,9.884880921E0
8.622808458E0,5.246589661E-1,4.113446045E-1,9.861492920E0,9.884002935E0
8.632832458E0,5.610333252E-1,4.254153442E-1,9.879605255E0,9.904662367E0
8.642856458E0,5.888754272E-1,4.364923096E-1,9.866881714E0,9.894071688E0
8.652880458E0,5.292993164E-1,4.385879517E-1,9.848170624E0,9.872131573E0
8.662905458E0,4.968168640E-1,4.358935547E-1,9.849517822E0,9.871668122E0
8.672929458E0,5.197192383E-1,4.278103638E-1,9.867630157E0,9.890563923E0
8.682953458E0,5.295986938E-1,4.174818420E-1,9.856104126E0,9.879147453E0
8.692977458E0,5.137316895E-1,4.209246826E-1,9.877060547E0,9.899364772E0
8.703001458E0,5.019062805E-1,4.221221924E-1,9.915979614E0,9.937643019E0
8.713025458E0,5.025050354E-1,3.999682617E-1,9.906549225E0,9.927346245E0
8.723049458E0,4.869374084E-1,3.655398560E-1,9.858798523E0,9.877582485E0
8.733073458E0,5.433700562E-1,3.915856934E-1,9.871072998E0,9.893769378E0
8.743098458E0,5.674699402E-1,4.294569397E-1,9.870324554E0,9.895946756E0
8.753122458E0,5.376818848E-1,4.504133606E-1,9.854457550E0,9.879388018E0
8.763146458E0,5.146298218E-1,4.827461243E-1,9.856702881E0,9.881926905E0
8.773170458E0,4.971162415E-1,4.620890808E-1,9.831704865E0,9.855103826E0
8.783194458E0,4.939727783E-1,4.328997803E-1,9.765243073E0,9.787307270E0
8.793218458E0,4.932243347E-1,4.134402466E-1,9.747879181E0,9.769101883E0
8.803242458E0,5.364843750E-1,3.873944092E-1,9.790540466E0,9.812877893E0
8.813266458E0,5.522016907E-1,3.909869385E-1,9.855056305E0,9.878255528E0
8.823291458E0,5.535488892E-1,3.981719971E-1,9.937235413E0,9.960602640E0
8.833315458E0,5.129832458E-1,4.077520752E-1,1.000743942E1,1.002887119E1
8.843339458E0,4.878355408E-1,4.140390015E-1,1.005713608E1,1.007746982E1
8.853363458E0,5.110372925E-1,3.965254211E-1,1.004096970E1,1.006178235E1
8.863387458E0,5.306465149E-1,3.829037476E-1,1.001148102E1,1.003284372E1
8.873411458E0,5.257067871E-1,4.204756165E-1,9.980196075E0,1.000287364E1
8.883435458E0,5.016069031E-1,4.104464722E-1,9.947114868E0,9.968207963E0
8.893459458E0,5.038522339E-1,4.159849548E-1,9.903705139E0,9.925234810E0
8.903484458E0,5.069956970E-1,4.326004028E-1,9.867031403E0,9.889514470E0
8.913508458E0,4.788542175E-1,4.424798584E-1,9.779463501E0,9.801173203E0
8.923532458E0,4.704716492E-1,4.537065125E-1,9.696685638E0,9.718688468E0
8.933556458E0,5.251080322E-1,4.995112610E-1,9.654323730E0,9.681488348E0
8.943580458E0,5.706134033E-1,5.218148804E-1,9.670190735E0,9.701055575E0
8.953604458E0,5.737568665E-1,4.969665527E-1,9.718540192E0,9.748138086E0
8.963628458E0,5.530998230E-1,4.965174866E-1,9.782157898E0,9.810354844E0
8.973652458E0,5.198689270E-1,4.571493530E-1,9.845925293E0,9.870232728E0
8.983677458E0,4.694238281E-1,3.899391174E-1,9.899813232E0,9.918604402E0
8.993701458E0,5.004093933E-1,3.775149536E-1,9.937983856E0,9.957733187E0
9.003725458E0,5.234614563E-1,4.099974060E-1,9.973011017E0,9.995151750E0
9.013749458E0,4.923262024E-1,4.279600525E-1,9.952204285E0,9.973560298E0
9.023773458E0,4.704716492E-1,4.589456177E-1,9.872569885E0,9.894423217E0
9.033797458E0,4.643344116E-1,4.869374084E-1,9.810299377E0,9.833345736E0
9.043821458E0,4.584965515E-1,4.846920776E-1,9.774074707E0,9.796819988E0
9.053845458E0,4.605921936E-1,5.135820007E-1,9.755213928E0,9.779576188E0
9.063870458E0,4.469705200E-1,5.281018066E-1,9.739496613E0,9.764039555E0
9.073894458E0,5.161267090E-1,5.242098999E-1,9.768536224E0,9.796197363E0
9.083918458E0,5.327421570E-1,5.126838684E-1,9.776020660E0,9.803939969E0
9.093942458E0,4.703219604E-1,4.881349182E-1,9.810149689E0,9.833540327E0
9.103966458E0,4.216731262E-1,4.459226990E-1,9.852062531E0,9.871159576E0
9.113990458E0,4.423301697E-1,4.423301697E-1,9.920320587E0,9.940023768E0
9.124014458E0,4.740641785E-1,4.317022705E-1,9.950108643E0,9.970745493E0
9.134038458E0,4.987628174E-1,4.465214539E-1,9.921967163E0,9.944525034E0
9.144063458E0,5.152285767E-1,4.646337891E-1,9.878707123E0,9.903039910E0
9.154087458E0,5.144801331E-1,4.638853455E-1,9.842931519E0,9.867278262E0
9.164111458E0,5.195695496E-1,4.837939453E-1,9.823921051E0,9.849539782E0
9.174135458E0,4.824467468E-1,5.147795105E-1,9.780960388E0,9.806372363E0
9.184159458E0,4.020639038E-1,4.963677979E-1,9.742640076E0,9.763558369E0
9.194183458E0,4.076023865E-1,4.957690430E-1,9.722282410E0,9.743444047E0
9.204207458E0,5.072950745E-1,5.089416504E-1,9.797575836E0,9.823892414E0
9.214231458E0,5.352868652E-1,5.101391602E-1,9.798623657E0,9.826484599E0
9.224256458E0,5.040019226E-1,4.870870972E-1,9.813143463E0,9.838142935E0
9.234280458E0,4.980143738E-1,5.254074097E-1,9.831555176E0,9.858171658E0
9.244304458E0,4.592449951E-1,5.173242188E-1,9.821526031E0,9.845857195E0
9.254328458E0,4.712200928E-1,5.004093933E-1,9.842482452E0,9.866454214E0
9.264352458E0,4.770579529E-1,4.845423889E-1,9.848320312E0,9.871766741E0
9.274376458E0,4.544549561E-1,4.846920776E-1,9.903106384E0,9.925370108E0
9.284400458E0,4.417314148E-1,4.724176025E-1,9.934241638E0,9.955273073E0
9.294424458E0,4.730163574E-1,4.772076416E-1,9.955497437E0,9.978146161E0
9.304449458E0,4.989125061E-1,4.942721558E-1,9.943971405E0,9.968740440E0
9.314473458E0,5.273533630E-1,5.014572144E-1,9.917775879E0,9.944437606E0
9.324497458E0,5.020559692E-1,4.927752686E-1,9.873018951E0,9.898049852E0
9.334521458E0,4.745132446E-1,4.546046448E-1,9.818232880E0,9.840199443E0
9.344545458E0,4.665797424E-1,4.894821167E-1,9.774074707E0,9.797439756E0
9.354569458E0,4.867877197E-1,4.854405212E-1,9.768685913E0,9.792846330E0
9.364593458E0,4.885839844E-1,4.924758911E-1,9.765692139E0,9.790300800E0
9.374617458E0,4.450245667E-1,5.023553467E-1,9.824519806E0,9.847415761E0
9.384642458E0,4.150868225E-1,4.710704041E-1,9.883497162E0,9.903419639E0
9.394666458E0,4.303550720E-1,4.387376404E-1,9.914482727E0,9.933512166E0
9.404690458E0,4.366419983E-1,4.361929321E-1,9.905351715E0,9.924561104E0
9.414714458E0,4.559518433E-1,4.493655396E-1,9.861043854E0,9.881801827E0
9.424738458E0,4.730163574E-1,4.775070190E-1,9.838740234E0,9.861671604E0
9.434762458E0,4.775070190E-1,4.799020386E-1,9.816735992E0,9.840052056E0
9.444786458E0,4.390370178E-1,4.923262024E-1,9.858199768E0,9.880245000E0
9.454811125E0,4.233197021E-1,4.890330505E-1,9.913434906E0,9.934512798E0
9.464835125E0,4.496649170E-1,4.956193542E-1,9.924212494E0,9.946749756E0
9.474860125E0,4.602928162E-1,5.016069031E-1,9.900411987E0,9.923791437E0
9.484884125E0,4.212240601E-1,4.653822327E-1,9.900411987E0,9.920290714E0
9.494908125E0,3.998185730E-1,4.463717651E-1,9.922865295E0,9.940943532E0
9.504932125E0,4.348457336E-1,4.296066284E-1,9.940977631E0,9.959753457E0
9.514956125E0,4.013154602E-1,4.355941772E-1,9.970017242E0,9.987594315E0
9.524980125E0,3.589535522E-1,4.544549561E-1,9.906100159E0,9.923013520E0
9.535004125E0,4.152365112E-1,4.528083801E-1,9.808503113E0,9.827725581E0
9.545028125E0,4.763095093E-1,5.176235962E-1,9.792935486E0,9.818166344E0
9.555053125E0,5.119354248E-1,5.298980713E-1,9.727222137E0,9.755086896E0
9.565077125E0,5.131329346E-1,5.279521179E-1,9.730964355E0,9.758775852E0
9.575101125E0,4.658312988E-1,5.221142578E-1,9.844428406E0,9.869264042E0
9.585125125E0,4.337979126E-1,4.692741394E-1,9.929900665E0,9.950443511E0
9.595149125E0,4.067042542E-1,4.258644104E-1,9.964628448E0,9.982013272E0
9.605173125E0,4.311035156E-1,4.255650330E-1,9.962532806E0,9.980932610E0
9.615197125E0,4.510121155E-1,4.586462402E-1,9.944869537E0,9.965650928E0
9.625221125E0,4.794529724E-1,5.189707947E-1,9.906698914E0,9.931862323E0
9.635246125E0,4.528083801E-1,4.761598206E-1,9.847721558E0,9.869619217E0
9.645270125E0,4.327500916E-1,5.014572144E-1,9.775571594E0,9.797986118E0
9.655294125E0,4.492158508E-1,5.236111450E-1,9.753717041E0,9.778085683E0
9.665318125E0,4.587959290E-1,5.200186157E-1,9.793534241E0,9.818056121E0
9.675342125E0,4.471202087E-1,5.525010681E-1,9.813442841E0,9.839148047E0
9.685366125E0,3.885919189E-1,5.304968262E-1,9.823322296E0,9.845308096E0
9.695390125E0,3.761677551E-1,5.125341797E-1,9.797575836E0,9.818181386E0
9.705414125E0,4.023632813E-1,5.081932068E-1,9.800270233E0,9.821682808E0
9.715438125E0,4.055067444E-1,5.008584595E-1,9.832004242E0,9.853101153E0
9.725463125E0,3.942800903E-1,4.845423889E-1,9.851164398E0,9.870951227E0
9.735487125E0,3.776646423E-1,4.851411438E-1,9.886640625E0,9.905738507E0
9.745511125E0,3.848497009E-1,5.011578369E-1,9.888436890E0,9.908604977E0
9.755535125E0,4.189787292E-1,5.126838684E-1,9.882898407E0,9.905052693E0
9.765559125E0,4.297563171E-1,5.269042969E-1,9.840237122E0,9.863700383E0
9.775583125E0,4.330494690E-1,5.131329346E-1,9.813742218E0,9.836685091E0
9.785607125E0,4.499642944E-1,5.141807556E-1,9.833052063E0,9.856762277E0
9.795631125E0,4.372407532E-1,5.037025452E-1,9.833800507E0,9.856395291E0
9.805656125E0,4.186793518E-1,5.098397827E-1,9.825417938E0,9.847541148E0
9.815680125E0,4.192781067E-1,4.897814941E-1,9.845925293E0,9.867011955E0
9.825704125E0,4.315525818E-1,4.972659302E-1,9.878108368E0,9.900027069E0
9.835728125E0,4.314028931E-1,4.908293152E-1,9.897567902E0,9.919116505E0
9.845752125E0,4.071533203E-1,4.902305603E-1,9.899364166E0,9.919854370E0
9.855776125E0,4.059558105E-1,5.081932068E-1,9.897717590E0,9.919066184E0
9.865800125E0,3.992198181E-1,5.125341797E-1,9.885742493E0,9.907066790E0
9.875824125E0,3.809577942E-1,4.896318054E-1,9.887987823E0,9.907430108E0
9.885848125E0,4.038601685E-1,4.878355408E-1,9.953102417E0,9.973230884E0
9.895873125E0,4.137396240E-1,4.941224670E-1,1.000100281E1,1.002174609E1
9.905897125E0,3.332070923E-1,4.754113770E-1,9.971663818E0,9.988549557E0
9.915921125E0,3.076103210E-1,4.831951904E-1,9.917775879E0,9.934303201E0
9.925945125E0,3.668870544E-1,5.300477600E-1,9.856702881E0,9.877760294E0
9.935969125E0,4.101470947E-1,5.445675659E-1,9.826166382E0,9.849787827E0
9.945993125E0,4.692741394E-1,5.390290833E-1,9.771679688E0,9.797780079E0
9.956017125E0,4.629872131E-1,5.394781494E-1,9.848769379E0,9.874393759E0
9.966041125E0,4.384382629E-1,4.754113770E-1,9.792935486E0,9.814266632E0
9.976066125E0,4.116439819E-1,5.095404053E-1,9.770332489E0,9.792266292E0
9.986090125E0,3.944297791E-1,4.996609497E-1,9.815688171E0,9.836308769E0
9.996114125E0,3.945794678E-1,5.234614563E-1,9.875114594E0,9.896847634E0
1.000613812E1,4.478686523E-1,5.412744141E-1,9.912536774E0,9.937401552E0
1.001616212E1,4.700225830E-1,5.554948425E-1,9.962383118E0,9.988922521E0
1.002618613E1,4.629872131E-1,5.029541016E-1,9.986483002E0,1.000985328E1
1.003621013E1,4.198768616E-1,5.137316895E-1,9.895172882E0,9.917391955E0
1.004623412E1,4.695735168E-1,5.384303284E-1,9.862391052E0,9.888233602E0
1.005625812E1,4.513114929E-1,5.295986938E-1,9.887838135E0,9.912290342E0
1.006628313E1,4.376898193E-1,5.119354248E-1,9.926008759E0,9.948834109E0
1.007630712E1,4.864883423E-1,5.304968262E-1,1.003138962E1,1.005718029E1
1.008633112E1,4.809498596E-1,5.272036743E-1,1.007210495E1,1.009735384E1
1.009635513E1,4.996609497E-1,5.748046875E-1,9.988578644E0,1.001757280E1
1.010637912E1,4.526586914E-1,5.846841431E-1,9.884844360E0,9.912462028E0
1.011640312E1,4.138893127E-1,5.502557373E-1,9.820627899E0,9.844735551E0
1.012642713E1,4.778063965E-1,5.683680725E-1,9.760153656E0,9.788357401E0
1.013645112E1,5.358856201E-1,5.551954651E-1,9.774673462E0,9.805083207E0
1.014647512E1,4.620890808E-1,5.318440247E-1,9.822873230E0,9.848107578E0
1.015650013E1,4.472698975E-1,5.665718079E-1,9.765542450E0,9.792184298E0
1.016652412E1,4.625381470E-1,6.141728210E-1,9.718989258E0,9.749353927E0
1.017654812E1,4.704716492E-1,6.309379578E-1,9.761949921E0,9.793625097E0
1.018657213E1,4.869374084E-1,6.441105652E-1,9.765692139E0,9.799016757E0
1.019659613E1,4.610412598E-1,6.486012268E-1,9.797575836E0,9.829839005E0
1.020662012E1,4.367916870E-1,6.075865173E-1,9.878557434E0,9.906858500E0
1.021664413E1,4.369413757E-1,6.051914978E-1,9.979148254E0,1.000702625E1
1.022666813E1,4.450245667E-1,5.879772949E-1,1.002165985E1,1.004875268E1
1.023669312E1,4.477189636E-1,6.074368286E-1,1.000444565E1,1.003286422E1
1.024671713E1,4.519102478E-1,6.237528992E-1,9.881551208E0,9.911525858E0
1.025674113E1,4.363426208E-1,6.339317322E-1,9.787696381E0,9.817905314E0
1.026676512E1,4.071533203E-1,6.204597473E-1,9.784103851E0,9.812208329E0
1.027678912E1,4.505630493E-1,6.340814209E-1,9.794582062E0,9.825421318E0
1.028681313E1,4.349954224E-1,6.466552734E-1,9.805808716E0,9.836730587E0
1.029683712E1,4.038601685E-1,6.330335999E-1,9.759704590E0,9.788547811E0
1.030686112E1,3.745211792E-1,6.280938721E-1,9.757010193E0,9.784376113E0
1.031688513E1,3.884422302E-1,6.491999817E-1,9.769733734E0,9.798981846E0
1.032691012E1,3.996688843E-1,6.378236389E-1,9.765243073E0,9.794208823E0
1.033693412E1,3.727249146E-1,6.480024719E-1,9.740095367E0,9.768740391E0
1.034695813E1,3.830534363E-1,6.343807983E-1,9.784403229E0,9.812426584E0
1.035698212E1,3.824546814E-1,6.253994751E-1,9.829459534E0,9.856757622E0
1.036700612E1,3.770658875E-1,6.078858948E-1,9.824370117E0,9.850378274E0
1.037703013E1,3.628454590E-1,5.818400574E-1,9.866133270E0,9.889933285E0
1.038705413E1,3.802093506E-1,6.026467896E-1,9.931996307E0,9.957524439E0
1.039707812E1,3.775149536E-1,6.107299805E-1,9.906249847E0,9.932235131E0
1.040710212E1,3.796105957E-1,6.105802917E-1,9.839189301E0,9.865422373E0
1.041712713E1,4.113446045E-1,6.361770630E-1,9.746681671E0,9.776079441E0
1.042715112E1,4.255650330E-1,6.403683472E-1,9.655521240E0,9.686086291E0
1.043717513E1,4.258644104E-1,6.414161682E-1,9.665400696E0,9.696017007E0
1.044719913E1,4.068539429E-1,6.499484253E-1,9.696535950E0,9.726806902E0
1.045722271E1,3.441343689E-1,6.251000977E-1,9.744885406E0,9.770975907E0
1.046724671E1,3.294648743E-1,6.080355835E-1,9.757459259E0,9.781935676E0
1.047727071E1,3.826043701E-1,6.149212646E-1,9.728419647E0,9.755340235E0
1.048729471E1,4.002676392E-1,6.318360901E-1,9.736502838E0,9.765189120E0
1.049731871E1,4.146377563E-1,6.539900208E-1,9.807904358E0,9.838425449E0
1.050734371E1,4.023632813E-1,6.375242615E-1,9.875863037E0,9.904595101E0
1.051736771E1,3.565585327E-1,6.280938721E-1,9.889784088E0,9.916121480E0
1.052739171E1,3.112028503E-1,6.194119263E-1,9.884844360E0,9.909120363E0
1.053741571E1,3.104544067E-1,6.099815369E-1,9.903405762E0,9.927029017E0
1.054743971E1,3.459306335E-1,6.206094360E-1,9.894424438E0,9.919902169E0
1.055746371E1,3.433859253E-1,6.123765564E-1,9.903705139E0,9.928559534E0
1.056748771E1,3.763174438E-1,6.008505249E-1,9.944270782E0,9.969511401E0
1.057751171E1,4.215234375E-1,6.090834045E-1,9.991422729E0,1.001884189E1
1.058753671E1,3.694317627E-1,6.183641052E-1,9.966125336E0,9.992122307E0
1.059756071E1,3.067121887E-1,5.722599792E-1,9.915979614E0,9.937213169E0
1.060758471E1,3.336561584E-1,5.533992004E-1,9.881251831E0,9.902359055E0
1.061760871E1,4.195774841E-1,5.909710693E-1,9.842781830E0,9.869429883E0
1.062763271E1,4.510121155E-1,6.411167908E-1,9.764195251E0,9.795608790E0
1.063765671E1,4.607418823E-1,6.971003723E-1,9.744136963E0,9.779899650E0
1.064768071E1,4.105961609E-1,6.800358582E-1,9.761800232E0,9.794068702E0
1.065770471E1,4.369413757E-1,6.685098267E-1,9.791438599E0,9.823955058E0
1.066772871E1,4.436773682E-1,6.530918884E-1,9.813442841E0,9.845153072E0
1.067775271E1,3.939807129E-1,6.198609924E-1,9.855804749E0,9.883133900E0
1.068777771E1,3.957769775E-1,5.974076843E-1,9.917775879E0,9.943631818E0
1.069780171E1,4.236190796E-1,5.891748047E-1,9.971663818E0,9.998032776E0
1.070782571E1,4.174818420E-1,5.968089294E-1,9.994117126E0,1.002062119E1
1.071784971E1,4.111949158E-1,5.989045715E-1,9.967921600E0,9.994359858E0
1.072787371E1,4.251159668E-1,6.054908752E-1,9.961934052E0,9.989367990E0
1.073789771E1,4.340972900E-1,6.156697083E-1,9.958341522E0,9.986794056E0
1.074792171E1,4.141886902E-1,6.277944946E-1,9.922416229E0,9.950880465E0
1.075794571E1,3.987707520E-1,6.333329773E-1,9.900561676E0,9.928809107E0
1.076796971E1,4.038601685E-1,6.366261292E-1,9.804012451E0,9.832957643E0
1.077799471E1,4.064048767E-1,6.571334839E-1,9.680219879E0,9.711006449E0
1.078801871E1,4.134402466E-1,6.668632507E-1,9.597292328E0,9.629312512E0
1.079804271E1,4.287084961E-1,6.780899048E-1,9.579928436E0,9.613460654E0
1.080806671E1,3.884422302E-1,6.707551575E-1,9.673483887E0,9.704488155E0
1.081809071E1,4.031117249E-1,6.417155457E-1,9.815837860E0,9.845048034E0
1.082811471E1,4.640350342E-1,6.512956238E-1,9.959389343E0,9.991443869E0
1.083813871E1,4.604425049E-1,6.535409546E-1,1.004156845E1,1.007334205E1
1.084816271E1,3.835025024E-1,6.122268677E-1,1.007060806E1,1.009648665E1
1.085818671E1,3.860472107E-1,6.048921204E-1,1.004426285E1,1.006986311E1
1.086821171E1,4.019142151E-1,6.236032104E-1,9.987081757E0,1.001460024E1
1.087823571E1,3.695814514E-1,6.242019653E-1,9.917476501E0,9.943970972E0
1.088825971E1,3.242257690E-1,6.378236389E-1,9.880204010E0,9.906077560E0
1.089828371E1,3.513194275E-1,6.569837952E-1,9.838889923E0,9.867056702E0
1.090830771E1,3.962260437E-1,6.954537964E-1,9.821526031E0,9.854086698E0
1.091833171E1,4.198768616E-1,7.063810730E-1,9.760153656E0,9.794685814E0
1.092835571E1,4.300556946E-1,7.223977661E-1,9.675878906E0,9.712334377E0
1.093837971E1,4.197271729E-1,7.167095947E-1,9.597591705E0,9.633463037E0
1.094840371E1,4.046086121E-1,6.765930176E-1,9.581575012E0,9.613951631E0
1.095842871E1,3.918850708E-1,6.667135620E-1,9.652826843E0,9.683756861E0
1.096845271E1,3.200344849E-1,6.430627441E-1,9.756411438E0,9.782817381E0
1.097847671E1,3.040177917E-1,6.066883850E-1,9.882000275E0,9.905272689E0
1.098850071E1,3.712280273E-1,5.860313416E-1,9.988428955E0,1.001249000E1
1.099852471E1,4.507127380E-1,6.159690857E-1,1.006686584E1,1.009575890E1
1.100854871E1,4.156855774E-1,6.315367126E-1,1.012479538E1,1.015298550E1
1.101857271E1,3.924838257E-1,6.378236389E-1,1.008303223E1,1.011080617E1
1.102859671E1,3.701802063E-1,6.523434448E-1,1.003228775E1,1.006028741E1
1.103862071E1,2.917433167E-1,6.328839111E-1,9.903854828E0,9.928343097E0
1.104864571E1,2.761756897E-1,6.414161682E-1,9.812395020E0,9.837214226E0
1.105866971E1,3.432362366E-1,6.653663635E-1,9.765243073E0,9.793900948E0
1.106869371E1,3.894900513E-1,6.595285034E-1,9.787546692E0,9.817471701E0
1.107871771E1,3.977229309E-1,6.737489319E-1,9.807455292E0,9.838612730E0
1.108874171E1,4.258644104E-1,6.879693604E-1,9.808952179E0,9.842266263E0
1.109876571E1,4.153862000E-1,6.613247681E-1,9.793384552E0,9.824473377E0
1.110878971E1,3.713777161E-1,6.500981140E-1,9.795031128E0,9.823603400E0
1.111881371E1,3.812571716E-1,6.439608765E-1,9.829758911E0,9.858204851E0
1.112883771E1,4.165837097E-1,6.280938721E-1,9.855954437E0,9.884729727E0
1.113886171E1,4.071533203E-1,6.646179199E-1,9.883197784E0,9.913883661E0
1.114888671E1,3.510200500E-1,6.818321228E-1,9.902208252E0,9.931859765E0
1.115891071E1,3.186872864E-1,6.759942627E-1,9.904303894E0,9.932460191E0
1.116893471E1,3.216810608E-1,6.761439514E-1,9.868528290E0,9.896893450E0
1.117895871E1,3.350033569E-1,6.944059753E-1,9.819430389E0,9.849651775E0
1.118898271E1,3.547622681E-1,6.985972595E-1,9.775122528E0,9.806473109E0
1.119900671E1,3.769161987E-1,6.884184265E-1,9.773176575E0,9.804640030E0
1.120903071E1,3.761677551E-1,6.966513062E-1,9.782606964E0,9.814592413E0
1.121905471E1,3.567082214E-1,6.580316162E-1,9.785451050E0,9.814035796E0
1.122907871E1,3.231779480E-1,6.349795532E-1,9.786947937E0,9.812848360E0
1.123910371E1,3.408412170E-1,6.836283875E-1,9.809550934E0,9.839248448E0
1.124912771E1,3.501219177E-1,6.971003723E-1,9.792486420E0,9.823508771E0
1.125915171E1,3.918850708E-1,7.506889343E-1,9.793983307E0,9.830524747E0
1.126917571E1,4.029620361E-1,7.455995178E-1,9.815837860E0,9.852358598E0
1.127919971E1,4.171824646E-1,7.173083496E-1,9.857301636E0,9.892167003E0
1.128922371E1,3.454815674E-1,6.812333679E-1,9.813442841E0,9.843124341E0
1.129924771E1,2.993774414E-1,7.015910339E-1,9.761051788E0,9.790811450E0
1.130927171E1,3.508703613E-1,7.502398682E-1,9.750274200E0,9.785387926E0
1.131929571E1,4.680766296E-1,8.443940735E-1,9.707014160E0,9.754907534E0
1.132931971E1,4.941224670E-1,8.849597168E-1,9.594298553E0,9.647687570E0
1.133934471E1,5.132826233E-1,9.219328308E-1,9.485923920E0,9.544431455E0
1.134936871E1,6.015989685E-1,9.922865295E-1,9.403744812E0,9.475070995E0
1.135939271E1,7.024891663E-1,1.068478088E0,9.438472595E0,9.524699543E0
1.136941671E1,7.646099854E-1,1.106049957E0,9.435927887E0,9.531249132E0
1.137944071E1,8.087681580E-1,1.158740387E0,9.311536560E0,9.418147287E0
1.138946471E1,7.740403748E-1,1.212179260E0,9.349407806E0,9.459383880E0
1.139948871E1,7.743397522E-1,1.194965057E0,9.443262634E0,9.550013231E0
1.140951271E1,8.379574585E-1,1.202299805E0,9.486073608E0,9.598608755E0
1.141953671E1,7.825726318E-1,1.148262177E0,9.645941162E0,9.745517270E0
1.142956071E1,7.535330200E-1,1.028062134E0,9.903106384E0,9.984800440E0
1.143958571E1,7.565267944E-1,9.898915100E-1,1.023122406E1,1.030680182E1
1.144960971E1,7.140151978E-1,9.626481628E-1,1.048764084E1,1.055590449E1
1.145963400E1,6.759942627E-1,9.937834167E-1,1.066891388E1,1.073640056E1
1.146965800E1,6.623725891E-1,1.083596649E0,1.076501404E1,1.083967003E1
1.147968200E1,6.430627441E-1,1.195863190E0,1.075244019E1,1.083783135E1
1.148970600E1,5.683680725E-1,1.306333466E0,1.053209839E1,1.062801232E1
1.149973000E1,5.529501343E-1,1.436263275E0,1.023062531E1,1.034573826E1
1.150975400E1,4.757107544E-1,1.408421173E0,9.917626190E0,1.002842262E1
1.151977800E1,6.083349609E-1,1.426533508E0,9.658515015E0,9.782227843E0
1.152980300E1,7.448510742E-1,1.392404480E0,9.431287537E0,9.562571723E0
1.153982700E1,7.985893250E-1,1.296454010E0,9.162895660E0,9.288551814E0
1.154985100E1,6.930587769E-1,1.226998444E0,9.023385773E0,9.132762257E0
1.155987500E1,5.068460083E-1,1.096619568E0,8.936117249E0,9.017408654E0
1.156989900E1,3.106040955E-1,1.041085052E0,8.971144409E0,9.036689936E0
1.157992300E1,2.546205139E-1,1.182241516E0,9.017098846E0,9.097834809E0
1.158994700E1,2.266287231E-1,1.373394012E0,8.944200439E0,9.051866835E0
1.159997100E1,2.047741699E-1,1.570384369E0,8.767567749E0,8.909449128E0
1.160999500E1,1.734892273E-1,1.784139862E0,8.529263306E0,8.715594420E0
1.162001900E1,1.829196167E-1,2.035317535E0,8.417745209E0,8.662240556E0
1.163004400E1,1.570234680E-1,2.190993805E0,8.437653809E0,8.718893967E0
1.164006800E1,1.586700439E-1,2.314487000E0,8.679999847E0,8.984677156E0
1.165009200E1,2.709365845E-1,2.365830231E0,9.176966400E0,9.480889812E0
1.166011600E1,2.812651062E-1,2.304457855E0,9.727521515E0,1.000071552E1
1.167014000E1,2.665956116E-1,2.183509369E0,1.004800507E1,1.028597065E1
1.168016400E1,2.314187622E-1,2.032323761E0,1.012808853E1,1.033257334E1
1.169018800E1,1.038839722E-1,1.898502045E0,9.978848877E0,1.015837225E1
1.170021200E1,1.071771240E-1,1.860481110E0,9.864037628E0,1.003853153E1
1.171023600E1,1.092727661E-1,1.744172974E0,9.852960663E0,1.000674341E1
1.172026000E1,2.616558838E-1,1.624871063E0,1.005279510E1,1.018662649E1
1.173028500E1,4.504133606E-1,1.544488220E0,1.055051010E1,1.067246829E1
1.174030900E1,5.442681885E-1,1.430724792E0,1.114073273E1,1.124540471E1
1.175033300E1,5.878276062E-1,1.359622650E0,1.174053543E1,1.183360838E1
1.176035700E1,5.140310669E-1,1.387614441E0,1.223735229E1,1.232649557E1
1.177038100E1,3.525169373E-1,1.422042847E0,1.232716553E1,1.241392299E1
1.178040500E1,2.544708252E-1,1.500479736E0,1.197809143E1,1.207438898E1
1.179042900E1,3.614982605E-1,1.687590637E0,1.121901993E1,1.135099341E1
1.180045300E1,4.989125061E-1,1.846560059E0,1.038300842E1,1.055772521E1
1.181047700E1,6.265969849E-1,2.022743683E0,9.695488129E0,9.924041810E0
1.182050200E1,6.806346130E-1,2.119442596E0,9.120833130E0,9.388551399E0
1.183052600E1,6.218069458E-1,2.182760925E0,8.779991913E0,9.068591243E0
1.184055000E1,5.444178772E-1,2.214494934E0,8.652457123E0,8.947926738E0
1.185057400E1,4.002676392E-1,2.190993805E0,8.681796112E0,8.962937675E0
1.186059800E1,2.020797729E-1,2.142794037E0,8.694220276E0,8.956666161E0
1.187062200E1,7.544311523E-2,2.117496643E0,8.654253387E0,8.909858887E0
1.188064600E1,5.942642212E-2,2.090702362E0,8.600515137E0,8.851182321E0
1.189067000E1,1.270857239E-1,2.089205475E0,8.514593811E0,8.768080637E0
1.190069400E1,2.622546387E-1,2.111958160E0,8.488997040E0,8.751697864E0
1.191071800E1,2.294728088E-1,2.031275940E0,8.498577118E0,8.740969783E0
1.192074300E1,1.965412903E-1,1.975741425E0,8.639733582E0,8.864941005E0
1.193076700E1,3.556604004E-1,1.998943176E0,8.890013123E0,9.118914489E0
1.194079100E1,4.468208313E-1,1.928290100E0,9.238638153E0,9.448300720E0
1.195081500E1,5.176235962E-1,1.977388000E0,9.626631317E0,9.841241182E0
1.196083900E1,4.908293152E-1,2.005379791E0,9.942474518E0,1.015456848E1
1.197086300E1,5.152285767E-1,2.010918274E0,1.019949005E1,1.040859501E1
1.198088700E1,5.724096680E-1,1.995200958E0,1.050934570E1,1.071236794E1
1.199091100E1,6.330335999E-1,1.974693604E0,1.072145462E1,1.092015273E1
1.200093500E1,6.231541443E-1,1.872456207E0,1.076920532E1,1.094852486E1
1.201095900E1,5.358856201E-1,1.798060913E0,1.070528824E1,1.086845862E1
1.202098300E1,4.824467468E-1,1.787283325E0,1.063224014E1,1.079220399E1
1.203100800E1,5.077441406E-1,1.874402161E0,1.060574524E1,1.078206936E1
1.204103200E1,5.409750366E-1,1.980830841E0,1.061457687E1,1.081136379E1
1.205105600E1,5.086422729E-1,2.089355164E0,1.064541275E1,1.086042976E1
1.206108000E1,4.605921936E-1,2.126627655E0,1.067460205E1,1.089411856E1
1.207110400E1,4.516108704E-1,2.119292908E0,1.081111816E1,1.102613399E1
1.208112800E1,4.090992737E-1,2.073787537E0,1.101903580E1,1.121994237E1
1.209115200E1,2.751278687E-1,2.017354889E0,1.118279526E1,1.136663212E1
1.210117600E1,8.756790161E-2,1.866468658E0,1.116917358E1,1.132439014E1
1.211120000E1,6.107299805E-2,1.711241455E0,1.101948486E1,1.115173188E1
1.212122400E1,1.118174744E-1,1.546733551E0,1.087009552E1,1.098015776E1
1.213124900E1,2.189945984E-1,1.424587555E0,1.078671890E1,1.088258761E1
1.214127300E1,3.490740967E-1,1.390009460E0,1.082354233E1,1.091801482E1
1.215129700E1,4.740641785E-1,1.393751678E0,1.088192093E1,1.098105112E1
1.216132100E1,5.861810303E-1,1.344204712E0,1.088506439E1,1.098340208E1
1.217134500E1,6.752458191E-1,1.257984009E0,1.080797470E1,1.090187130E1
1.218136900E1,5.893244934E-1,1.044827271E0,1.066008224E1,1.072736318E1
1.219139300E1,6.477030945E-1,8.038284302E-1,1.072474777E1,1.077431549E1
1.220141700E1,8.271798706E-1,5.754034424E-1,1.093236603E1,1.097870405E1
1.221144100E1,9.545649719E-1,4.110452271E-1,1.111693222E1,1.116540794E1
1.222146500E1,9.708810425E-1,3.406915283E-1,1.117186798E1,1.121914947E1
1.223149000E1,7.915539551E-1,2.616558838E-1,1.101080292E1,1.104231870E1
1.224151400E1,6.018983459E-1,2.173480225E-1,1.071486832E1,1.073396128E1
1.225153800E1,4.854405212E-1,2.404000854E-1,1.046144531E1,1.047546098E1
1.226156200E1,4.815486145E-1,3.638932800E-1,1.019185593E1,1.020971276E1
1.227158600E1,5.403762817E-1,5.798941040E-1,9.795929260E0,9.827945552E0
1.228161000E1,6.024971008E-1,8.173004150E-1,9.351054382E0,9.406019391E0
1.229163400E1,7.232958984E-1,1.101559296E0,8.914113007E0,9.010993316E0
1.230165800E1,7.033872986E-1,1.348994751E0,8.502918091E0,8.637948633E0
1.231168200E1,6.005511475E-1,1.469793549E0,8.203690338E0,8.355925438E0
1.232170600E1,4.953199768E-1,1.455872498E0,8.021369476E0,8.167452166E0
1.233173100E1,4.340972900E-1,1.391206970E0,8.023465118E0,8.154746458E0
1.234175500E1,5.046006775E-1,1.420695648E0,8.103398895E0,8.242455437E0
1.235177900E1,5.644761658E-1,1.465003510E0,8.227790222E0,8.376240240E0
1.236180300E1,6.173162842E-1,1.470691681E0,8.363557892E0,8.514288815E0
1.237182700E1,7.155120850E-1,1.437610474E0,8.549770660E0,8.699267772E0
1.238185100E1,8.780740356E-1,1.354682922E0,8.775201874E0,8.922463099E0
1.239187500E1,1.107247467E0,1.203347626E0,9.033714294E0,9.180524844E0
1.240189900E1,1.262175293E0,1.044228516E0,9.370064850E0,9.512182450E0
1.241192300E1,1.105451202E0,8.610095215E-1,9.694140930E0,9.794882752E0
1.242194700E1,8.822653198E-1,7.212002563E-1,9.952204285E0,1.001722976E1
1.243197200E1,7.261399841E-1,7.258406067E-1,1.016805542E1,1.021975904E1
1.244199600E1,5.996530151E-1,7.906558228E-1,1.042716660E1,1.047427914E1
1.245201946E1,5.394781494E-1,9.533674622E-1,1.064750839E1,1.070370876E1
1.246204346E1,5.739065552E-1,1.182989960E0,1.072235275E1,1.080267016E1
1.247206746E1,5.152285767E-1,1.300046539E0,1.041908340E1,1.051251066E1
1.248209146E1,3.858975220E-1,1.347048798E0,9.967472534E0,1.006548390E1
1.249211546E1,3.885919189E-1,1.427281952E0,9.565408630E0,9.679110482E0
1.250213946E1,4.131408691E-1,1.592388611E0,9.217382355E0,9.363040336E0
1.251216346E1,3.281176758E-1,1.739233246E0,8.886270905E0,9.060816965E0
1.252218746E1,2.194436646E-1,1.859433289E0,8.614436188E0,8.815563426E0
1.253221146E1,2.197430420E-1,1.994302826E0,8.496780853E0,8.730453346E0
1.254223646E1,2.270777893E-1,2.096689911E0,8.462352448E0,8.721185805E0
1.255226046E1,1.483415222E-1,2.190395050E0,8.414452057E0,8.696139322E0
1.256228446E1,2.005828857E-2,2.134411469E0,8.413553925E0,8.680092413E0
1.257230846E1,-6.182144165E-2,2.139500885E0,8.652756500E0,8.913556023E0
1.258233246E1,-1.046324158E-1,2.117496643E0,8.890162811E0,9.139460312E0
1.259235646E1,-2.309696960E-1,2.084415436E0,9.072333984E0,9.311572297E0
1.260238046E1,-3.152444458E-1,2.076781311E0,9.325008545E0,9.558670621E0
1.261240446E1,-1.730401611E-1,2.128423920E0,9.703122253E0,9.935326504E0
1.262242846E1,1.064286804E-1,2.171384583E0,1.009545639E1,1.032688132E1
1.263245246E1,2.978805542E-1,2.197280731E0,1.018287460E1,1.042150232E1
1.264247646E1,2.248324585E-1,2.176174622E0,1.006911118E1,1.030404219E1
1.265250146E1,2.107617188E-1,2.071991272E0,9.818083191E0,1.003654950E1
1.266252546E1,5.553451538E-1,1.962718506E0,9.532626801E0,9.748417610E0
1.267254946E1,5.664221191E-1,2.195634155E0,9.107810211E0,9.385832419E0
1.268257346E1,-4.080514526E-1,2.646496582E0,8.514294434E0,8.925450120E0
1.269259746E1,7.030879211E-1,2.234403534E0,9.045539703E0,9.343911403E0
1.270262146E1,8.834628296E-1,2.180365906E0,9.430688782E0,9.719690991E0
1.271264546E1,9.214837646E-1,2.065704346E0,9.621092834E0,9.883404985E0
1.272266946E1,5.837860107E-3,1.918859711E0,1.036759048E1,1.054367057E1
1.273269346E1,-8.095166016E-1,2.303559723E0,1.076456497E1,1.103800542E1
1.274271746E1,-8.539741516E-1,2.303859100E0,1.013392639E1,1.042753579E1
1.275274246E1,-6.042933655E-1,2.445764008E0,9.380992126E0,9.713390002E0
1.276276646E1,-2.604583740E-1,2.640808411E0,8.905730438E0,9.292671428E0
1.277279046E1,1.130149841E-1,2.728076935E0,9.007967834E0,9.412686155E0
1.278281446E1,5.182223511E-1,2.580633545E0,9.509425049E0,9.866984780E0
1.279283846E1,9.307644653E-1,2.286345520E0,1.031475037E1,1.060602534E1
1.280286246E1,1.113983459E0,1.934277649E0,1.105421265E1,1.127732266E1
1.281288646E1,9.846524048E-1,1.732796631E0,1.145627655E1,1.162834455E1
1.282291046E1,7.417076111E-1,1.454525299E0,1.151705017E1,1.163220610E1
1.283293446E1,5.195695496E-1,1.247805176E0,1.130464188E1,1.138516132E1
1.284295846E1,5.894741821E-1,1.138682098E0,1.108714417E1,1.116104128E1
1.285298246E1,8.259823608E-1,1.117276611E0,1.086740112E1,1.095586423E1
1.286300746E1,9.506730652E-1,1.002016296E0,1.053808594E1,1.062822051E1
1.287303146E1,9.945318604E-1,8.298742676E-1,1.024589355E1,1.032744497E1
1.288305546E1,1.096619568E0,6.176156616E-1,1.026355682E1,1.034043627E1
1.289307946E1,1.268312531E0,4.191284180E-1,1.056308395E1,1.064720752E1
1.290310346E1,1.301992493E0,2.754272461E-1,1.085108505E1,1.093238727E1
1.291312746E1,1.146914978E0,2.688409424E-1,1.085003723E1,1.091379848E1
1.292315146E1,7.685018921E-1,3.504212952E-1,1.038106247E1,1.041536597E1
1.293317546E1,2.725831604E-1,5.529501343E-1,9.732311554E0,9.751817452E0
1.294319946E1,9.610015869E-2,8.339158630E-1,9.237290955E0,9.275354176E0
1.295322346E1,-1.541793823E-2,9.934840393E-1,8.858279114E0,8.913829542E0
1.296324746E1,-1.990859985E-1,1.122216339E0,8.703051910E0,8.777363915E0
1.297327246E1,-4.281097412E-1,1.180744629E0,8.574469299E0,8.665965589E0
1.298329646E1,-5.936654663E-1,1.261426849E0,8.519832916E0,8.633144810E0
1.299332046E1,-5.739065552E-1,1.341210938E0,8.605604553E0,8.728381593E0
1.300334446E1,-4.604425049E-1,1.408271484E0,8.809031525E0,8.932763977E0
1.301336846E1,-2.610571289E-1,1.430874481E0,9.065448303E0,9.181389086E0
1.302339246E1,1.945953369E-3,1.375190277E0,9.397158508E0,9.497249081E0
1.303341646E1,2.748284912E-1,1.278042297E0,9.725126495E0,9.812594365E0
1.304344046E1,3.691323853E-1,1.071621552E0,9.866282959E0,9.931171678E0
1.305346446E1,3.493734741E-1,8.578660583E-1,9.854158173E0,9.897597147E0
1.306348846E1,4.070036316E-1,6.819818115E-1,9.753267975E0,9.785549925E0
1.307351246E1,5.098397827E-1,6.394702148E-1,9.608518982E0,9.643261678E0
1.308353746E1,5.655239868E-1,6.858737183E-1,9.428293762E0,9.470108944E0
1.309356146E1,5.008584595E-1,7.716453552E-1,9.302555237E0,9.347931840E0
1.310358546E1,4.070036316E-1,8.824150085E-1,9.212592316E0,9.263701494E0
1.311360946E1,2.191442871E-1,9.392967224E-1,9.135053558E0,9.185831811E0
1.312363346E1,1.140628052E-1,1.011446686E0,9.103918304E0,9.160642074E0
1.313365746E1,2.387535095E-1,1.120420074E0,9.073980560E0,9.146008287E0
1.314368146E1,2.653981018E-1,1.150657196E0,8.993298340E0,9.070494097E0
1.315370546E1,2.228865051E-1,1.207239532E0,8.816515961E0,8.901576229E0
1.316372946E1,2.631527710E-1,1.275048523E0,8.769813080E0,8.865924632E0
1.317375346E1,2.869532776E-1,1.251996460E0,8.877439270E0,8.969881009E0
1.318377746E1,3.269201660E-1,1.242266693E0,9.048683167E0,9.139407551E0
1.319380246E1,3.611988831E-1,1.261277161E0,9.197473755E0,9.290576310E0
1.320382646E1,3.061134338E-1,1.317560120E0,9.318422241E0,9.416085342E0
1.321385046E1,1.246907043E-1,1.349593506E0,9.419911194E0,9.516915325E0
1.322387446E1,6.062393188E-2,1.417252808E0,9.543404388E0,9.648256221E0
1.323389846E1,8.367599487E-2,1.506916351E0,9.540260925E0,9.658901443E0
1.324392246E1,6.032455444E-2,1.534159698E0,9.404044189E0,9.528553518E0
1.325394646E1,6.062393188E-2,1.536704407E0,9.404493256E0,9.529408643E0
1.326397046E1,1.366658020E-1,1.505718842E0,9.571096802E0,9.689776094E0
1.327399446E1,3.080593872E-1,1.559457092E0,9.818681946E0,9.946523119E0
1.328401846E1,3.818559265E-1,1.563947754E0,1.004396347E1,1.017216539E1
1.329404246E1,2.694396973E-1,1.582359467E0,1.018871246E1,1.031437448E1
1.330406646E1,4.251159668E-2,1.598974915E0,1.022284149E1,1.034722263E1
1.331409146E1,-2.020797729E-1,1.604513397E0,1.023541534E1,1.036238519E1
1.332411546E1,-3.664379883E-1,1.530267792E0,1.036714142E1,1.048587705E1
1.333413946E1,-4.093986511E-1,1.444196777E0,1.049392776E1,1.060074674E1
1.334416346E1,-3.022215271E-1,1.385219421E0,1.063403641E1,1.072813595E1
1.335418746E1,-1.633103943E-1,1.327738953E0,1.080872314E1,1.089119172E1
1.336421146E1,-1.716929626E-1,1.375040588E0,1.089883575E1,1.098657526E1
1.337423546E1,-1.336720276E-1,1.515448608E0,1.094763428E1,1.105283443E1
1.338425946E1,-2.634521484E-2,1.790127411E0,1.098670303E1,1.113161685E1
1.339428346E1,9.879455566E-2,1.996997223E0,1.097188385E1,1.115257789E1
1.340430746E1,1.972897339E-1,2.065255280E0,1.087952591E1,1.107557162E1
1.341433146E1,2.656974792E-1,2.057920532E0,1.070079758E1,1.090012389E1
1.342435646E1,3.712280273E-1,2.054477692E0,1.045186523E1,1.065833832E1
1.343438046E1,4.543052673E-1,2.045047302E0,1.010773087E1,1.032254014E1
1.344440446E1,4.899311829E-1,2.055226135E0,9.664951630E0,9.893193470E0
1.345442812E1,4.044589233E-1,2.003134460E0,9.251511383E0,9.474523606E0
1.346445213E1,1.600172424E-1,1.881736908E0,8.979377289E0,9.175824530E0
1.347447612E1,3.832031250E-2,1.625320129E0,9.035510559E0,9.180609186E0
1.348450012E1,2.865042114E-1,1.298549652E0,9.451046448E0,9.544139292E0
1.349452413E1,7.396119690E-1,1.093476105E0,9.916278992E0,1.000376454E1
1.350454812E1,1.059945831E0,7.867639160E-1,1.029618896E1,1.038046193E1
1.351457212E1,1.191821594E0,6.147715759E-1,1.057580750E1,1.066049187E1
1.352459613E1,1.225651245E0,6.051914978E-1,1.076651093E1,1.085293671E1
1.353462013E1,1.216220856E0,6.872209167E-1,1.096574661E1,1.105436857E1
1.354464512E1,1.090632019E0,8.577163696E-1,1.090661957E1,1.099452163E1
1.355466913E1,8.116122437E-1,1.009500732E0,1.044063858E1,1.052068154E1
1.356469313E1,6.030958557E-1,1.239572296E0,9.804012451E0,9.900450708E0
1.357471712E1,5.554948425E-1,1.503024445E0,9.244026947E0,9.381881005E0
1.358474112E1,6.532415771E-1,1.757794647E0,8.982221375E0,9.175885102E0
1.359476513E1,7.930508423E-1,2.050286407E0,8.829089813E0,9.098649950E0
1.360478912E1,6.038442993E-1,2.184257813E0,8.597371674E0,8.891029739E0
1.361481312E1,3.053649902E-1,2.211201782E0,8.419840851E0,8.710704969E0
1.362483713E1,1.428030396E-1,2.205214233E0,8.487051086E0,8.770028430E0
1.363486112E1,6.676116943E-2,2.138902130E0,8.732839966E0,8.991209776E0
1.364488512E1,9.280700684E-3,1.971550140E0,8.990154877E0,9.203802518E0
1.365490913E1,-1.080752563E-1,1.717079315E0,9.221423950E0,9.380549094E0
1.366493412E1,-1.047821045E-1,1.488654327E0,9.475146332E0,9.591948134E0
1.367495812E1,-5.388793945E-3,1.324146423E0,9.703421631E0,9.793354080E0
1.368498213E1,1.377136230E-1,1.211580505E0,9.921368408E0,9.996021381E0
1.369500613E1,1.751358032E-1,1.220561829E0,1.008872040E1,1.016379471E1
1.370503012E1,1.029858398E-1,1.291065216E0,1.017583923E1,1.025793154E1
1.371505413E1,3.966751099E-2,1.433568878E0,1.020502853E1,1.030530449E1
1.372507813E1,2.604583740E-2,1.623823242E0,1.011057495E1,1.024017608E1
1.373510212E1,-6.137237549E-3,1.819915466E0,9.925110626E0,1.009058724E1
1.374512612E1,-6.900650024E-2,1.986219635E0,9.658065948E0,9.860429413E0
1.375515013E1,-1.207987976E-1,2.119891663E0,9.345216522E0,9.583402572E0
1.376517412E1,-4.745132446E-2,2.221679993E0,9.124725037E0,9.391417391E0
1.377519912E1,4.924758911E-2,2.212099915E0,8.931327209E0,9.201326920E0
1.378522313E1,1.191522217E-1,2.181862793E0,8.778495026E0,9.046363768E0
1.379524712E1,9.939331055E-2,2.140997772E0,8.588689728E0,8.852081209E0
1.380527112E1,1.296304321E-1,2.053280182E0,8.468489685E0,8.714819625E0
1.381529513E1,2.745291138E-1,2.023043060E0,8.527317352E0,8.768307173E0
1.382531913E1,3.182382202E-1,1.996847534E0,8.617729340E0,8.851775789E0
1.383534312E1,3.107537842E-1,1.966460724E0,8.659492493E0,8.885400718E0
1.384536713E1,3.679348755E-1,2.036964111E0,8.674910431E0,8.918445484E0
1.385539113E1,3.710783386E-1,2.119143219E0,8.681945801E0,8.944531849E0
1.386541512E1,3.195854187E-1,2.190395050E0,8.796906738E0,9.071137386E0
1.387543912E1,1.884580994E-1,2.273771667E0,9.030720520E0,9.314476215E0
1.388546313E1,6.376739502E-2,2.336790619E0,9.288933563E0,9.578566877E0
1.389548812E1,1.258882141E-1,2.366728363E0,9.564061432E0,9.853350804E0
1.390551212E1,3.405418396E-1,2.354453888E0,9.842931519E0,1.012633807E1
1.391553613E1,6.221063232E-1,2.237696686E0,1.012719040E1,1.039010530E1
1.392556012E1,9.336085510E-1,2.200424194E0,1.045261368E1,1.072243556E1
1.393558412E1,9.773176575E-1,2.088307343E0,1.071801178E1,1.096320910E1
1.394560813E1,9.571096802E-1,2.039359131E0,1.090736801E1,1.113758149E1
1.395563212E1,8.689430237E-1,2.074685669E0,1.099643280E1,1.122412210E1
1.396565612E1,7.864645386E-1,2.076631622E0,1.115794693E1,1.137676162E1
1.397568013E1,7.819738770E-1,2.004182281E0,1.136691238E1,1.156870463E1
1.398570413E1,8.560697937E-1,1.980681152E0,1.147932861E1,1.168036552E1
1.399572812E1,8.202941895E-1,1.872755585E0,1.135882919E1,1.154136459E1
1.400575212E1,8.689430237E-1,1.803150330E0,1.105451202E1,1.123426229E1
1.401577713E1,1.042881317E0,1.882185974E0,1.071591614E1,1.092982544E1
1.402580112E1,1.254391479E0,2.030228119E0,1.051189041E1,1.077938608E1
1.403582512E1,1.408720551E0,2.152523804E0,1.043480072E1,1.074722840E1
1.404584913E1,1.498683472E0,2.170935516E0,1.041608963E1,1.074494934E1
1.405587312E1,1.590292969E0,2.210004272E0,1.049737061E1,1.084471946E1
1.406589712E1,1.456171875E0,2.237696686E0,1.046683411E1,1.080195997E1
1.407592113E1,1.077609100E0,2.199825439E0,1.030966095E1,1.059667789E1
1.408594512E1,6.704557800E-1,2.175575867E0,1.018167709E1,1.043308151E1
1.409596912E1,4.757107544E-1,2.284100189E0,1.021954834E1,1.048248934E1
1.410599313E1,5.519023132E-1,2.322121124E0,1.036040543E1,1.063178458E1
1.411601713E1,7.830216980E-1,2.218835907E0,1.054916290E1,1.080838534E1
1.412604112E1,9.241781616E-1,2.010768585E0,1.073507629E1,1.096080100E1
1.413606512E1,8.096662903E-1,1.633103943E0,1.091829529E1,1.106940649E1
1.414609013E1,5.010081482E-1,1.161734161E0,1.107457031E1,1.114660231E1
1.415611412E1,2.706372070E-1,7.996371460E-1,1.124746078E1,1.127909740E1
1.416613813E1,2.627037048E-1,6.306385803E-1,1.131182693E1,1.133243782E1
1.417616213E1,4.403842163E-1,6.177653503E-1,1.105376358E1,1.107976812E1
1.418618612E1,5.995033264E-1,7.331753540E-1,1.038016434E1,1.042327981E1
1.419621012E1,6.429130554E-1,9.592053223E-1,9.497749329E0,9.567688036E0
1.420623413E1,6.400689697E-1,1.250349884E0,8.760981445E0,8.872872083E0
1.421625812E1,5.679190063E-1,1.497036896E0,8.272098083E0,8.425631025E0
1.422628212E1,5.484594727E-1,1.741179199E0,7.884853363E0,8.093418644E0
1.423630613E1,4.670288086E-1,1.958527222E0,7.712861023E0,7.971334264E0
1.424633013E1,2.398013306E-1,1.994602203E0,7.683222656E0,7.941527121E0
1.425635412E1,1.440005493E-1,1.989512787E0,7.882608032E0,8.131076600E0
1.426637913E1,1.257385254E-1,1.988764343E0,8.310867462E0,8.546432692E0
1.427640313E1,2.454895020E-2,1.896256714E0,8.758586426E0,8.961541628E0
1.428642712E1,-7.619155884E-2,1.825903015E0,9.148226166E0,9.328974700E0
1.429645113E1,-4.011657715E-2,1.817670135E0,9.360634460E0,9.535565613E0
1.430647513E1,-1.257385254E-2,1.821412354E0,9.378148041E0,9.553395299E0
1.431649912E1,-5.239105225E-2,1.833986206E0,9.202862549E0,9.383971937E0
1.432652312E1,-2.260299683E-2,1.817670135E0,8.974437561E0,9.156689639E0
1.433654713E1,1.703457642E-1,1.786534882E0,8.880582733E0,9.060103434E0
1.434657112E1,4.323010254E-1,1.723964996E0,8.895252228E0,9.071077757E0
1.435659512E1,5.279521179E-1,1.719025269E0,8.902886353E0,9.082684995E0
1.436661913E1,4.556524658E-1,1.739981689E0,8.871302032E0,9.051803975E0
1.437664313E1,3.444337463E-1,1.791175232E0,8.859925690E0,9.045729741E0
1.438666812E1,2.010319519E-1,1.870210876E0,8.789122925E0,8.988146881E0
1.439669213E1,-1.691482544E-2,1.894460449E0,8.591982880E0,8.798376913E0
1.440671612E1,-8.696914673E-2,1.945354614E0,8.380921783E0,8.604174461E0
1.441674012E1,6.975494385E-2,1.992057495E0,8.325387268E0,8.560679411E0
1.442676413E1,2.487826538E-1,2.004331970E0,8.378526764E0,8.618523666E0
1.443678813E1,4.760101318E-1,2.030826874E0,8.595874786E0,8.845332486E0
1.444681212E1,5.950126648E-1,2.077829132E0,8.815617828E0,9.076702687E0
1.445683658E1,5.179229736E-1,2.146985321E0,8.946146393E0,9.214734150E0
1.446686058E1,1.371148682E-1,2.197280731E0,8.983867950E0,9.249687911E0
1.447688458E1,-1.246907043E-1,2.256407776E0,9.065448303E0,9.342873046E0
1.448690858E1,-1.008901978E-1,2.353705444E0,9.288185120E0,9.582300922E0
1.449693258E1,4.206253052E-2,2.423759766E0,9.501641235E0,9.805996473E0
1.450695758E1,1.263372803E-1,2.439028015E0,9.610015869E0,9.915504212E0
1.451698158E1,2.811154175E-1,2.532433777E0,9.625433807E0,9.956968549E0
1.452700558E1,3.638932800E-1,2.681673431E0,9.630972290E0,1.000397011E1
1.453702958E1,3.963757324E-1,2.798730011E0,9.668843536E0,1.007355641E1
1.454705358E1,4.384382629E-1,2.944526825E0,9.764644318E0,1.020836642E1
1.455707758E1,3.689826965E-1,3.001408539E0,9.853110352E0,1.030671553E1
1.456710158E1,2.736309814E-1,2.986589355E0,9.941426697E0,1.038395660E1
1.457712558E1,4.188290405E-1,2.938539276E0,1.017179764E1,1.059603218E1
1.458714958E1,6.932084656E-1,2.908302155E0,1.050710037E1,1.092418956E1
1.459717358E1,8.187973022E-1,2.783012695E0,1.085497696E1,1.123592958E1
1.460719758E1,9.389973450E-1,2.624492340E0,1.123698257E1,1.157754091E1
1.461722158E1,1.177451477E0,2.461481323E0,1.168440216E1,1.199877228E1
1.462724558E1,1.496288452E0,2.368674316E0,1.208811264E1,1.240854401E1
1.463727058E1,1.682950287E0,2.281405792E0,1.231728607E1,1.263933029E1
1.464729458E1,1.675465851E0,2.166744232E0,1.218570969E1,1.248973526E1
1.465731858E1,1.507066040E0,2.146685944E0,1.184247345E1,1.212945531E1
1.466734258E1,1.287772064E0,2.150727539E0,1.148636398E1,1.175672333E1
1.467736658E1,1.193318481E0,2.225871277E0,1.117007172E1,1.145203100E1
1.468739058E1,1.052311707E0,2.185155945E0,1.087039490E1,1.113767263E1
1.469741458E1,9.925859070E-1,2.136806488E0,1.062834824E1,1.088636555E1
1.470743858E1,9.677375793E-1,2.158511353E0,1.027747787E1,1.054619546E1
1.471746258E1,8.388555908E-1,2.223027191E0,9.892029419E0,1.017338560E1
1.472748658E1,5.757028198E-1,2.256258087E0,9.613159332E0,9.891155981E0
1.473751058E1,3.270698547E-1,2.290985870E0,9.603429565E0,9.878332368E0
1.474753458E1,5.478607178E-2,2.182760925E0,9.775870972E0,1.001674099E1
1.475755958E1,-1.498384094E-1,1.989363098E0,9.971813507E0,1.016941895E1
1.476758358E1,-1.547781372E-1,1.776356049E0,1.000669098E1,1.016431313E1
1.477760758E1,9.250762939E-2,1.661694489E0,1.005054977E1,1.018741071E1
1.478763158E1,5.522016907E-1,1.584754486E0,1.007479935E1,1.021361617E1
1.479765558E1,1.043629761E0,1.581012268E0,9.896370392E0,1.007605626E1
1.480767958E1,1.274300079E0,1.592089233E0,9.546847229E0,9.762217004E0
1.481770358E1,1.357077942E0,1.647923126E0,9.228908386E0,9.472595271E0
1.482772758E1,1.410516815E0,1.829944611E0,8.910370789E0,9.205050926E0
1.483775158E1,1.329235840E0,1.926942902E0,8.617879028E0,8.930163258E0
1.484777558E1,1.047222290E0,1.962119751E0,8.234077148E0,8.529162616E0
1.485779958E1,7.613168335E-1,1.884131927E0,7.970924377E0,8.225885476E0
1.486782358E1,6.436614990E-1,1.735341339E0,7.929460602E0,8.142607391E0
1.487784758E1,7.060816956E-1,1.575473785E0,8.071215820E0,8.253798751E0
1.488787258E1,7.083270264E-1,1.411414948E0,8.276888123E0,8.426191092E0
1.489789658E1,5.664221191E-1,1.275647278E0,8.447533264E0,8.562063317E0
1.490792058E1,3.586541748E-1,1.161434784E0,8.615783386E0,8.701108374E0
1.491794458E1,1.619631958E-1,1.179696808E0,8.799301758E0,8.879506071E0
1.492796858E1,-4.775070190E-2,1.247356110E0,8.893006897E0,8.980186472E0
1.493799258E1,-2.688409424E-1,1.412013702E0,8.884324951E0,8.999849331E0
1.494801658E1,-4.430786133E-1,1.645378418E0,8.680149536E0,8.845823012E0
1.495804058E1,-6.012995911E-1,1.898052979E0,8.384214935E0,8.617379323E0
1.496806458E1,-6.647676086E-1,2.167792053E0,8.154592438E0,8.463959841E0
1.497808858E1,-6.830296326E-1,2.455942841E0,7.889194336E0,8.290812505E0
1.498811258E1,-6.647676086E-1,2.720293121E0,7.691455536E0,8.185377139E0
1.499813658E1,-6.346801758E-1,2.870281219E0,7.694748688E0,8.237140922E0
1.500816058E1,-5.731581116E-1,2.889291687E0,7.879763947E0,8.412324086E0
1.501818558E1,-4.670288086E-1,2.753673706E0,8.227191467E0,8.688355093E0
1.502820958E1,-2.823129272E-1,2.582130432E0,8.612490234E0,8.995670414E0
1.503823358E1,-1.221459961E-1,2.440075836E0,8.904981995E0,9.234045379E0
1.504825758E1,4.879852295E-2,2.335593109E0,9.092991028E0,9.388283246E0
1.505828158E1,3.342549133E-1,2.275118866E0,9.210496674E0,9.493215534E0
1.506830558E1,6.472540283E-1,2.268831940E0,9.341174927E0,9.634525684E0
1.507832958E1,7.418572998E-1,2.274370422E0,9.460776215E0,9.758555203E0
1.508835358E1,6.451583862E-1,2.209704895E0,9.619895325E0,9.891481746E0
1.509837758E1,6.086343384E-1,2.175426178E0,9.845326538E0,1.010115684E1
1.510840158E1,6.331832886E-1,2.156116333E0,1.005668701E1,1.030469371E1
1.511842558E1,6.301895142E-1,2.106269989E0,1.031924103E1,1.055084108E1
1.512844958E1,5.840853882E-1,2.077080688E0,1.056383240E1,1.078192816E1
1.513847458E1,5.873785400E-1,2.061213684E0,1.081486038E1,1.102519027E1
1.514849858E1,5.760021973E-1,2.094743958E0,1.097727264E1,1.119018523E1
1.515852258E1,5.005590820E-1,2.112856293E0,1.108280319E1,1.129350467E1
1.516854658E1,4.523593140E-1,2.092648315E0,1.110121490E1,1.130578517E1
1.517857058E1,5.194198608E-1,2.106120300E0,1.117067047E1,1.137934174E1
1.518859458E1,6.489006042E-1,2.134261780E0,1.129805557E1,1.151617146E1
1.519861858E1,8.195457458E-1,2.210453339E0,1.145657593E1,1.169661879E1
1.520864258E1,9.283694458E-1,2.353705444E0,1.142409348E1,1.170092778E1
1.521866658E1,1.006656647E0,2.471061401E0,1.117860397E1,1.149263629E1
1.522869058E1,1.037193146E0,2.610271912E0,1.084300186E1,1.120089186E1
1.523871458E1,1.084045715E0,2.761307831E0,1.049811905E1,1.090919244E1
1.524873858E1,1.092727661E0,2.936892700E0,1.023212219E1,1.070120166E1
1.525876258E1,1.057700500E0,3.089275818E0,1.011566437E1,1.062962939E1
1.526878758E1,1.039887543E0,3.105591888E0,1.007824219E1,1.059702943E1
1.527881158E1,9.199868774E-1,3.087180176E0,1.015353561E1,1.065229284E1
1.528883558E1,5.840853882E-1,2.939587097E0,1.029424301E1,1.072164946E1
1.529885958E1,2.110610962E-1,2.668800201E0,1.040710831E1,1.074592688E1
1.530888358E1,-4.086502075E-2,2.381098480E0,1.051892578E1,1.078513326E1
1.531890758E1,-6.391708374E-2,2.173330536E0,1.075288925E1,1.097050948E1
1.532893158E1,1.016386414E-1,1.984573059E0,1.095362183E1,1.113241626E1
1.533895558E1,3.288661194E-1,1.754651184E0,1.107022934E1,1.121324803E1
1.534897958E1,5.673202515E-1,1.582658844E0,1.109956833E1,1.122617826E1
1.535900358E1,6.276448059E-1,1.463806000E0,1.100212097E1,1.111680403E1
1.536902758E1,5.676196289E-1,1.325643311E0,1.081261505E1,1.090835306E1
1.537905158E1,4.653822327E-1,1.167721710E0,1.047147446E1,1.054665501E1
1.538907558E1,4.537065125E-1,1.079704742E0,9.970615997E0,1.003916308E1
1.539909958E1,5.550457764E-1,1.098864899E0,9.417815552E0,9.497938179E0
1.540912458E1,8.442443848E-1,1.198407898E0,8.962312775E0,9.081408500E0
1.541914858E1,1.140777740E0,1.416504364E0,8.679850159E0,8.868351439E0
1.542917258E1,1.220412140E0,1.604214020E0,8.450077972E0,8.687158693E0
1.543919658E1,1.052760773E0,1.779200134E0,8.304281158E0,8.557741754E0
1.544922058E1,7.222480774E-1,1.866468658E0,8.223299561E0,8.463332866E0
1.545924446E1,2.685415649E-1,1.861229553E0,8.157586212E0,8.371529301E0
1.546926846E1,-2.649490356E-2,1.818119202E0,8.233628082E0,8.432015821E0
1.547929246E1,-3.321592712E-1,1.754202118E0,8.383765869E0,8.571760904E0
1.548931646E1,-5.983058167E-1,1.649719391E0,8.615334320E0,8.792242567E0
1.549934046E1,-6.629713440E-1,1.526076508E0,8.936716003E0,9.090287863E0
1.550936446E1,-6.767427063E-1,1.432221680E0,9.114396515E0,9.251024995E0
1.551938846E1,-7.036866760E-1,1.410666504E0,9.020841064E0,9.157550351E0
1.552941346E1,-5.677693176E-1,1.430425415E0,8.734486542E0,8.869032304E0
1.553943746E1,-4.418811035E-1,1.458417206E0,8.461604004E0,8.597731211E0
1.554946146E1,-3.830534363E-1,1.547481995E0,8.077502747E0,8.233315315E0
1.555948546E1,-3.782633972E-1,1.620530090E0,7.765850830E0,7.942143293E0
1.556950946E1,-3.522175598E-1,1.677860870E0,7.617658997E0,7.808201003E0
1.557953346E1,-2.701881409E-1,1.699416046E0,7.564519501E0,7.757768481E0
1.558955746E1,-1.272354126E-1,1.751358032E0,7.511978760E0,7.714484344E0
1.559958146E1,6.256988525E-2,1.857038269E0,7.436385956E0,7.665007646E0
1.560960546E1,2.230361938E-1,1.889670410E0,7.324867859E0,7.567977838E0
1.561962946E1,3.748205566E-1,1.884580994E0,7.286697235E0,7.535787455E0
1.562965346E1,5.664221191E-1,1.907782745E0,7.486681366E0,7.746668116E0
1.563967746E1,6.749464417E-1,1.898502045E0,7.846383362E0,8.100962571E0
1.564970246E1,6.388714600E-1,1.955683136E0,8.311915283E0,8.562755920E0
1.565972646E1,4.457730103E-1,1.972897339E0,8.825497284E0,9.054305042E0
1.566975046E1,2.537223816E-1,1.969005432E0,9.402996368E0,9.610291262E0
1.567977446E1,1.047821045E-1,1.972747650E0,9.915530548E0,1.011041338E1
1.568979846E1,-9.280700684E-3,1.931732941E0,1.032298325E1,1.050217413E1
1.569982246E1,-7.424560547E-2,1.826202393E0,1.061412781E1,1.077034060E1
1.570984646E1,-1.465452576E-1,1.781744843E0,1.074600357E1,1.089369923E1
1.571987046E1,-1.305285645E-1,1.759590912E0,1.087757996E1,1.101975243E1
1.572989446E1,-1.437011719E-2,1.691931610E0,1.109702362E1,1.122527382E1
1.573991846E1,2.365081787E-2,1.683099976E0,1.127126129E1,1.139625886E1
1.574994246E1,-3.113525391E-2,1.626966705E0,1.126946503E1,1.138634410E1
1.575996646E1,-5.972579956E-2,1.482068024E0,1.125030487E1,1.134766286E1
1.576999046E1,2.704875183E-1,1.433568878E0,1.138442596E1,1.147751880E1
1.578001546E1,8.101153564E-1,1.378782806E0,1.162018570E1,1.172970778E1
1.579003946E1,1.293460236E0,1.345851288E0,1.191597061E1,1.206128976E1
1.580006346E1,1.685644684E0,1.422342224E0,1.220531891E1,1.240299420E1
1.581008746E1,1.828148346E0,1.420845337E0,1.230680786E1,1.252271726E1
1.582011146E1,1.710792389E0,1.427581329E0,1.213616272E1,1.233901311E1
1.583013546E1,1.473086700E0,1.475182343E0,1.187480621E1,1.205641613E1
1.584015946E1,1.241218872E0,1.517394562E0,1.164578247E1,1.180962996E1
1.585018346E1,1.005459137E0,1.603914642E0,1.143966110E1,1.159522904E1
1.586020746E1,8.325686646E-1,1.687890015E0,1.118114868E1,1.133844033E1
1.587023146E1,8.009843445E-1,1.747316437E0,1.095796280E1,1.112527030E1
1.588025546E1,6.996450806E-1,1.698517914E0,1.074899734E1,1.090483426E1
1.589027946E1,3.471281433E-1,1.551074524E0,1.053913376E1,1.065831462E1
1.590030346E1,1.625619507E-1,1.329385529E0,1.050799850E1,1.059300358E1
1.591032846E1,4.870870972E-1,1.130299530E0,1.083267334E1,1.090236867E1
1.592035246E1,8.762777710E-1,8.403524780E-1,1.121707397E1,1.128258851E1
1.593037646E1,1.019679565E0,3.721261597E-1,1.137963593E1,1.143128768E1
1.594040046E1,1.146166534E0,-2.903961182E-2,1.137798935E1,1.143561029E1
1.595042446E1,1.334924011E0,-2.004331970E-1,1.117426300E1,1.125550306E1
1.596044846E1,1.470541992E0,-2.761756897E-1,1.069615723E1,1.080030306E1
1.597047246E1,1.499731293E0,-2.463876343E-1,1.007225464E1,1.018627578E1
1.598049646E1,1.525627441E0,-8.756790161E-2,9.432784424E0,9.555764188E0
1.599052046E1,1.615440674E0,1.863624573E-1,8.763376465E0,8.912976304E0
1.600054446E1,1.669178925E0,4.772076416E-1,8.298443298E0,8.478092155E0
1.601056846E1,1.660946045E0,8.039781189E-1,8.098309479E0,8.305885804E0
1.602059246E1,1.361718292E0,1.101110229E0,8.027357025E0,8.216153678E0
1.603061746E1,9.638456726E-1,1.203796692E0,7.971223755E0,8.119022916E0
1.604064146E1,6.529421997E-1,1.164727936E0,8.062982941E0,8.172797476E0
1.605066546E1,4.803511047E-1,1.067879333E0,8.305628357E0,8.387762864E0
1.606068946E1,3.444337463E-1,8.354127502E-1,8.555608521E0,8.603196280E0
1.607071346E1,2.751278687E-1,6.527925110E-1,8.684041443E0,8.712887534E0
1.608073746E1,2.475851440E-1,4.791535950E-1,8.793014832E0,8.809540079E0
1.609076146E1,2.680924988E-1,4.294569397E-1,8.864865417E0,8.879309980E0
1.610078546E1,2.112107849E-1,3.820056152E-1,8.811725922E0,8.822530930E0
1.611080946E1,2.032772827E-1,4.435276794E-1,8.821755066E0,8.835236324E0
1.612083346E1,2.595602417E-1,5.604345703E-1,9.026229858E0,9.047335734E0
1.613085746E1,2.818638611E-1,6.976991272E-1,9.357191620E0,9.387399337E0
1.614088146E1,1.109193420E-1,8.228388977E-1,9.555828552E0,9.591831226E0
1.615090546E1,-2.038760376E-1,9.247769165E-1,9.688452759E0,9.734623498E0
1.616093046E1,-3.767665100E-1,1.006956024E0,9.698781281E0,9.758189984E0
1.617095446E1,-4.706213379E-1,1.036744080E0,9.537117462E0,9.604839000E0
1.618097846E1,-4.412823486E-1,1.092577972E0,9.240883484E0,9.315706323E0
1.619100246E1,-3.299139404E-1,1.176253967E0,8.805738373E0,8.890075641E0
1.620102646E1,-2.152523804E-1,1.186881866E0,8.496331787E0,8.581531098E0
1.621105046E1,-6.406677246E-2,1.203647003E0,8.320297852E0,8.407153323E0
1.622107446E1,8.577163696E-2,1.206790466E0,8.237519989E0,8.325889476E0
1.623109846E1,1.529818726E-1,1.186283112E0,8.161478119E0,8.248660265E0
1.624112246E1,2.342628479E-1,1.220262451E0,8.150401154E0,8.244571456E0
1.625114646E1,3.707789612E-1,1.276395721E0,8.292605438E0,8.398450335E0
1.626117046E1,4.486170959E-1,1.367556152E0,8.488547974E0,8.609698823E0
1.627119446E1,3.366499329E-1,1.392554169E0,8.626860352E0,8.745013426E0
1.628121946E1,2.710862732E-1,1.449136505E0,8.694819031E0,8.818920702E0
1.629124346E1,2.933898926E-1,1.591490479E0,8.738827515E0,8.887408278E0
1.630126746E1,3.255729675E-1,1.717977448E0,8.756341095E0,8.929219095E0
1.631129146E1,3.429368591E-1,1.853445740E0,8.892408142E0,9.089982913E0
1.632131546E1,3.722758484E-1,1.937121735E0,9.181457062E0,9.390962874E0
1.633133946E1,3.698808289E-1,2.002086639E0,9.546248474E0,9.760943739E0
1.634136346E1,3.002755737E-1,2.038760376E0,9.956844635E0,1.016786430E1
1.635138746E1,1.405577087E-1,1.961820374E0,1.042896286E1,1.061281122E1
1.636141146E1,-1.347198486E-3,1.827699280E0,1.093925171E1,1.109088429E1
1.637143546E1,1.070274353E-1,1.719474335E0,1.147364044E1,1.160226150E1
1.638145946E1,4.490661621E-1,1.574126587E0,1.196925980E1,1.208067527E1
1.639148346E1,8.195457458E-1,1.433568878E0,1.226654160E1,1.237718941E1
1.640150846E1,1.045426025E0,1.357227631E0,1.243344452E1,1.255091730E1
1.641153246E1,1.071621552E0,1.292562103E0,1.233958969E1,1.245329528E1
1.642155646E1,9.407936096E-1,1.312321014E0,1.210382996E1,1.221105969E1
1.643158046E1,7.905061340E-1,1.279389496E0,1.193677734E1,1.203114254E1
1.644160446E1,9.105564880E-1,1.237326965E0,1.181073944E1,1.191023330E1
1.645162846E1,1.179397430E0,1.257684631E0,1.166164948E1,1.178841878E1
1.646165250E1,1.444945221E0,1.294358368E0,1.151824768E1,1.168046488E1
1.647167650E1,1.562600555E0,1.394649811E0,1.134954849E1,1.154118796E1
1.648170050E1,1.404080200E0,1.408271484E0,1.116827545E1,1.134394316E1
1.649172450E1,1.062041473E0,1.382075958E0,1.106020020E1,1.119670016E1
1.650174850E1,5.879772949E-1,1.360221405E0,1.102741837E1,1.112653924E1
1.651177250E1,3.016227722E-1,1.250798950E0,1.127126129E1,1.134446144E1
1.652179750E1,2.219883728E-1,1.147364044E0,1.167227737E1,1.173063435E1
1.653182150E1,2.487826538E-1,1.036744080E0,1.188842789E1,1.193614044E1
1.654184550E1,2.709365845E-1,7.620652771E-1,1.185594543E1,1.188350084E1
1.655186950E1,3.224295044E-1,4.727169800E-1,1.169832321E1,1.171230926E1
1.656189350E1,4.905299377E-1,3.603007507E-1,1.144445114E1,1.146062381E1
1.657191750E1,5.405259705E-1,3.222798157E-1,1.097637451E1,1.099439994E1
1.658194150E1,4.569996643E-1,3.014730835E-1,1.041683807E1,1.043121518E1
1.659196550E1,3.752696228E-1,2.026785278E-1,9.961484985E0,9.970611265E0
1.660198950E1,3.688330078E-1,8.412506104E-2,9.608369293E0,9.615813813E0
1.661201350E1,4.331991577E-1,4.475692749E-2,9.277407532E0,9.287623765E0
1.662203750E1,4.816983032E-1,5.583389282E-2,8.942104797E0,8.955243653E0
1.663206150E1,3.915856934E-1,2.709365845E-2,8.626710663E0,8.635636067E0
1.664208650E1,3.206332397E-1,1.499880981E-1,8.296647034E0,8.304194970E0
1.665211050E1,4.025129700E-1,4.122427368E-1,8.071664886E0,8.092202099E0
1.666213450E1,4.607418823E-1,6.203100586E-1,7.932604065E0,7.970148989E0
1.667215850E1,4.944218445E-1,7.514373779E-1,7.851921844E0,7.903277026E0
1.668218250E1,5.047503662E-1,8.138575745E-1,7.906558228E0,7.964345553E0
1.669220650E1,4.974156189E-1,8.601113892E-1,8.191715240E0,8.251752086E0
1.670223050E1,2.682421875E-1,8.405021667E-1,8.665779419E0,8.710575796E0
1.671225450E1,-1.190025330E-1,7.485932922E-1,9.160201263E0,9.191509164E0
1.672227850E1,-4.924758911E-1,6.735992432E-1,9.563612366E0,9.599945308E0
