"Time (s)","Acceleration x (m/s^2)","Acceleration y (m/s^2)","Acceleration z (m/s^2)","Absolute acceleration (m/s^2)"
-1.232916664E-3,-1.499880981E-1,8.014334106E-1,9.412875824E0,9.448122735E0
8.791083354E-3,-1.435514832E-1,7.945477295E-1,9.758357391E0,9.791703228E0
1.881608338E-2,-3.068618774E-2,7.728428650E-1,1.000160156E1,1.003146358E1
2.884108335E-2,2.335144043E-2,7.081773376E-1,9.971214752E0,9.996358540E0
3.886608337E-2,1.210981750E-1,6.170169067E-1,9.874815216E0,9.894814308E0
4.889008333E-2,2.712359619E-1,5.848338318E-1,9.895771637E0,9.916748250E0
5.891508335E-2,3.037184143E-1,5.391787720E-1,1.010608429E1,1.012501350E1
6.894008338E-2,2.698887634E-1,5.110372925E-1,1.008003845E1,1.009659221E1
7.896508335E-2,2.481838989E-1,5.366340637E-1,9.949360199E0,9.966912247E0
8.898908336E-2,1.869612122E-1,5.852828979E-1,9.844129028E0,9.863284792E0
9.901408333E-2,1.311273193E-1,6.680607605E-1,9.750124512E0,9.773864514E0
1.090390834E-1,1.646575928E-2,7.101232910E-1,9.785900116E0,9.811645493E0
1.190640834E-1,-1.031355286E-1,7.761360168E-1,9.876761169E0,9.907746225E0
1.290880833E-1,-2.935395813E-1,7.740403748E-1,1.012629227E1,1.016007377E1
1.391130834E-1,-4.019142151E-1,7.637118530E-1,1.019035904E1,1.022683764E1
1.491380833E-1,-4.894821167E-1,8.238867188E-1,1.004860382E1,1.009419738E1
1.591630834E-1,-3.746708679E-1,6.879693604E-1,9.922715607E0,9.953590564E0
1.691870834E-1,-9.460327148E-2,8.170010376E-1,9.901459808E0,9.935559713E0
1.792120833E-1,1.252894592E-1,9.801617432E-1,9.557475128E0,9.608420542E0
1.892370834E-1,1.818717957E-1,8.605604553E-1,9.329648895E0,9.371018630E0
1.992620833E-1,2.180964661E-1,7.316784668E-1,9.412875824E0,9.443789003E0
2.092860834E-1,3.454815674E-1,7.288343811E-1,9.530381470E0,9.564451266E0
2.193110834E-1,6.014492798E-1,6.080355835E-1,9.800419922E0,9.837666347E0
2.293360833E-1,6.206094360E-1,4.839436340E-1,1.021924896E1,1.024950764E1
2.393610834E-1,6.481521606E-1,4.894821167E-1,1.035875885E1,1.039055239E1
2.493850833E-1,5.709127808E-1,5.191204834E-1,1.031175659E1,1.034058758E1
2.594100834E-1,4.444258118E-1,5.566923523E-1,1.017194733E1,1.019685898E1
2.694350834E-1,2.763253784E-1,6.545887756E-1,9.936786346E0,9.962156648E0
2.794600833E-1,1.231938171E-1,7.767347717E-1,9.636211395E0,9.668250290E0
2.894840834E-1,1.152603149E-2,9.333091736E-1,9.411528625E0,9.457698977E0
2.995090833E-1,-8.352630615E-2,1.033600616E0,9.310339050E0,9.367909057E0
3.095340834E-1,-1.559756470E-1,1.053958282E0,9.370064850E0,9.430443879E0
3.195590834E-1,-1.089733887E-1,1.016685791E0,9.462273102E0,9.517359794E0
3.295830833E-1,-1.085243225E-1,9.988728333E-1,9.527088318E0,9.579923605E0
3.396080834E-1,-2.339634705E-1,9.539662170E-1,9.562265167E0,9.612580589E0
3.496330833E-1,-3.131488037E-1,9.330097961E-1,9.653126221E0,9.703165220E0
3.596580834E-1,-3.218307495E-1,9.141490173E-1,9.761800232E0,9.809790376E0
3.696820834E-1,-2.968327332E-1,9.232800293E-1,9.853409729E0,9.901022118E0
3.797070833E-1,-2.517764282E-1,8.957373047E-1,9.935139771E0,9.978614080E0
3.897320834E-1,5.313949585E-2,7.708969116E-1,9.987081757E0,1.001693106E1
3.997570833E-1,3.408412170E-1,6.825805664E-1,1.007075775E1,1.009961636E1
4.097810833E-1,2.356100464E-1,6.740483093E-1,1.032268387E1,1.034735017E1
4.198060834E-1,2.061213684E-1,7.557783508E-1,1.030951126E1,1.033923157E1
4.298310833E-1,3.183879089E-1,6.831793213E-1,1.016745667E1,1.019535580E1
4.398560834E-1,3.291654968E-1,6.535409546E-1,1.002525238E1,1.005192275E1
4.498800834E-1,2.790197754E-1,7.316784668E-1,9.855655060E0,9.886715434E0
4.599050833E-1,1.892065430E-1,8.406518555E-1,9.648785248E0,9.687184907E0
4.699300834E-1,7.993377686E-2,8.702902222E-1,9.433981934E0,9.474376476E0
4.799550833E-1,1.332229614E-1,9.324110413E-1,9.426198120E0,9.473138324E0
4.899790834E-1,3.113525391E-1,9.689350891E-1,9.536219330E0,9.590373023E0
5.000040834E-1,3.716770935E-1,9.475296021E-1,9.596094818E0,9.649921863E0
5.100290834E-1,3.055146790E-1,9.177415466E-1,9.553583221E0,9.602423711E0
5.200540834E-1,1.770817566E-1,8.418493652E-1,9.480235748E0,9.519187893E0
5.300780833E-1,1.710942078E-1,8.234376526E-1,9.505832520E0,9.542964670E0
5.401030834E-1,2.866539001E-1,8.340655518E-1,9.670190735E0,9.710325672E0
5.501280833E-1,3.450325012E-1,7.955955505E-1,9.885742493E0,9.923705172E0
5.601530834E-1,3.827540588E-1,7.584727478E-1,1.002989273E1,1.006580994E1
5.701770834E-1,4.046086121E-1,7.484436035E-1,1.013018417E1,1.016585006E1
5.802020833E-1,4.731660461E-1,7.442523193E-1,1.012404694E1,1.016238771E1
5.902270834E-1,4.860392761E-1,7.493417358E-1,1.009336075E1,1.013280210E1
6.002520833E-1,4.519102478E-1,6.749464417E-1,1.006417145E1,1.009689668E1
6.102760833E-1,4.065545654E-1,6.357279968E-1,1.013826736E1,1.016631211E1
6.203010834E-1,2.806663513E-1,6.563850403E-1,1.020233414E1,1.022727905E1
6.303260833E-1,1.844165039E-1,7.255412292E-1,1.024873764E1,1.027604217E1
6.403510834E-1,3.150947571E-1,8.419990540E-1,1.012150223E1,1.016135102E1
6.503750834E-1,3.603007507E-1,9.415420532E-1,1.000818787E1,1.005883405E1
6.604000833E-1,2.725831604E-1,8.951385498E-1,9.805659027E0,9.850204239E0
6.704250834E-1,3.532653809E-1,1.017134857E0,9.494306488E0,9.555166950E0
6.804500833E-1,1.966909790E-1,8.710386658E-1,9.557624817E0,9.599249337E0
6.904740834E-1,2.469863892E-1,9.148974609E-1,9.525142365E0,9.572166772E0
7.004990834E-1,2.417472839E-1,9.002279663E-1,9.756112061E0,9.800539510E0
7.105240833E-1,1.531315613E-1,8.672964478E-1,9.871821442E0,9.911029764E0
7.205490834E-1,1.074765015E-1,9.677375793E-1,9.870474243E0,9.918383387E0
7.305730833E-1,5.733078003E-2,9.385482788E-1,9.936486969E0,9.980878367E0
7.405980834E-1,7.738906860E-2,9.038204956E-1,1.014545242E1,1.018592585E1
7.506230834E-1,8.008346558E-2,8.982820129E-1,1.027852570E1,1.031801407E1
7.606487500E-1,1.428030396E-1,8.954379272E-1,1.031460068E1,1.035438018E1
7.706727500E-1,1.978884888E-1,8.301736450E-1,1.009695328E1,1.013295681E1
7.806977500E-1,3.966751099E-1,8.801696777E-1,9.754465485E0,9.802124601E0
7.907227500E-1,2.887495422E-1,9.454339600E-1,9.753118286E0,9.803088186E0
8.007477500E-1,1.960922241E-1,1.000968475E0,9.439370728E0,9.494319869E0
8.107717500E-1,1.612147522E-1,1.079105988E0,9.348210297E0,9.411668060E0
8.207967500E-1,1.354682922E-1,1.071920929E0,9.317823486E0,9.380255895E0
8.308217500E-1,1.317260742E-1,1.076561279E0,9.312584381E0,9.375530054E0
8.408467500E-1,1.118174744E-1,1.083896027E0,9.405541077E0,9.468449540E0
8.508707500E-1,1.830693054E-1,1.069076843E0,9.536369019E0,9.597852558E0
8.608957500E-1,2.357597351E-1,1.074914703E0,9.815688171E0,9.877183736E0
8.709207500E-1,1.627116394E-1,1.108594666E0,9.954299927E0,1.001716248E1
8.809457500E-1,1.426533508E-1,1.018631744E0,9.910441132E0,9.963674223E0
8.909697500E-1,2.234852600E-1,9.699829102E-1,1.003662872E1,1.008586777E1
9.009947500E-1,2.903961182E-1,9.551637268E-1,1.001163071E1,1.006128307E1
9.110197500E-1,3.769161987E-1,9.851014709E-1,9.918823700E0,9.974745827E0
9.210437500E-1,3.299139404E-1,9.410929871E-1,9.946815491E0,9.996681331E0
9.310687500E-1,2.968327332E-1,9.888436890E-1,9.980944519E0,1.003420027E1
9.410937500E-1,2.306703186E-1,1.053958282E0,9.948911133E0,1.000724086E1
9.511187500E-1,1.636097717E-1,1.052162018E0,9.884994049E0,9.942178857E0
9.611427500E-1,1.480421448E-1,1.118025055E0,9.804910583E0,9.869557642E0
9.711677500E-1,1.369651794E-1,1.172511749E0,9.751322021E0,9.822516196E0
9.811927500E-1,1.094224548E-1,1.128503265E0,9.658814392E0,9.725131791E0
9.912177500E-1,1.835183716E-1,1.123862915E0,9.633966064E0,9.701033397E0
1.001241750E0,2.460882568E-1,1.104702759E0,9.707762604E0,9.773514331E0
1.011266750E0,2.508782959E-1,1.042432251E0,9.744136963E0,9.802949050E0
1.021291750E0,2.601589966E-1,1.065933380E0,9.784702606E0,9.846029746E0
1.031316750E0,1.884580994E-1,1.058598633E0,9.787247314E0,9.846134141E0
1.041340750E0,1.637594604E-1,1.054856415E0,9.721983032E0,9.780413759E0
1.051365750E0,2.049238586E-1,1.048120422E0,9.771529999E0,9.829717632E0
1.061390750E0,2.685415649E-1,1.078507233E0,9.868079224E0,9.930472294E0
1.071415750E0,2.133064270E-1,1.082399139E0,9.850266266E0,9.911853159E0
1.081439750E0,1.020877075E-1,1.034049683E0,9.867330780E0,9.921889808E0
1.091464750E0,5.882766724E-2,9.747729492E-1,9.876162415E0,9.924325017E0
1.101489750E0,2.022294617E-1,9.942324829E-1,9.923164673E0,9.974898100E0
1.111514750E0,2.872526550E-1,1.061293030E0,9.960287476E0,1.002078757E1
1.121538750E0,2.103126526E-1,1.088686066E0,9.881251831E0,9.943269408E0
1.131563750E0,1.666035461E-1,1.115630035E0,9.872719574E0,9.936950181E0
1.141588750E0,1.049317932E-1,1.108744354E0,9.936337280E0,9.998556059E0
1.151613750E0,1.537303162E-1,1.024170227E0,9.887089691E0,9.941182034E0
1.161637750E0,1.808239746E-1,1.091380463E0,9.958341522E0,1.001959952E1
1.171662750E0,1.405577087E-1,1.129401398E0,9.948911133E0,1.001379732E1
1.181687750E0,2.284249878E-1,1.143322449E0,9.753717041E0,9.823154295E0
1.191712750E0,2.137554932E-1,1.124611359E0,9.624685364E0,9.692523432E0
1.201736750E0,1.541793823E-2,1.152154083E0,9.555978241E0,9.625196979E0
1.211761750E0,3.382965088E-2,1.187779999E0,9.344019012E0,9.419270517E0
1.221786750E0,1.920506287E-1,1.188229065E0,9.408085785E0,9.484769364E0
1.231811750E0,3.353027344E-1,1.162931671E0,9.479636993E0,9.556587023E0
1.241835750E0,2.942880249E-1,1.120120697E0,9.545200653E0,9.615203135E0
1.251860750E0,1.817221069E-1,1.051712952E0,9.693991241E0,9.752568341E0
1.261885750E0,1.592687988E-1,1.051114197E0,9.771380310E0,9.829042719E0
1.271910750E0,2.028282166E-1,1.013542328E0,9.813742218E0,9.868026330E0
1.281934750E0,2.435435486E-1,1.047371979E0,9.820627899E0,9.879323553E0
1.291959750E0,1.462458801E-1,1.056652679E0,9.758507080E0,9.816637060E0
1.301984750E0,1.380130005E-1,1.065484314E0,9.765542450E0,9.824465571E0
1.312008750E0,2.007325745E-1,1.080752563E0,9.807604980E0,9.869013888E0
1.322033750E0,1.944456482E-1,1.022673340E0,9.852212219E0,9.907055843E0
1.332058750E0,2.493814087E-1,9.684860229E-1,9.977651367E0,1.002764594E1
1.342083750E0,2.803669739E-1,9.581575012E-1,1.009321106E1,1.014246424E1
1.352107750E0,2.662962341E-1,8.984317017E-1,1.012464569E1,1.016791737E1
1.362132750E0,3.189866638E-1,8.472381592E-1,1.014365616E1,1.018397394E1
1.372157750E0,3.323089600E-1,8.659492493E-1,1.016057098E1,1.020281824E1
1.382182750E0,3.266207886E-1,9.072633362E-1,1.009665390E1,1.014259473E1
1.392206750E0,3.131488037E-1,9.312135315E-1,1.000519409E1,1.005331436E1
1.402231750E0,2.564167786E-1,9.662406921E-1,9.899813232E0,9.950159430E0
1.412256750E0,1.859133911E-1,1.015937347E0,9.701026611E0,9.755850029E0
1.422281750E0,2.079176331E-1,1.059796143E0,9.508676605E0,9.569813394E0
1.432305750E0,2.023791504E-1,1.106798401E0,9.302704926E0,9.370500464E0
1.442330750E0,2.345622253E-1,1.101559296E0,9.150621185E0,9.219670298E0
1.452355750E0,2.412982178E-1,1.103654938E0,9.198072510E0,9.267190348E0
1.462380750E0,2.474354553E-1,1.075363770E0,9.310788116E0,9.375948320E0
1.472404750E0,2.704875183E-1,1.010249176E0,9.535171509E0,9.592354382E0
1.482429750E0,2.740800476E-1,9.599537659E-1,9.781409454E0,9.832222639E0
1.492454750E0,2.044747925E-1,9.153465271E-1,9.926906891E0,9.971115766E0
1.502479750E0,1.751358032E-1,9.048683167E-1,9.939331055E0,9.981971801E0
1.512503750E0,1.163081360E-1,8.767268372E-1,9.920320587E0,9.959665561E0
1.522528750E0,1.893562317E-1,8.728349304E-1,9.953701172E0,9.993691191E0
1.532553750E0,3.306623840E-1,8.810678101E-1,9.987830200E0,1.003206710E1
1.542578750E0,3.586541748E-1,8.610095215E-1,1.000968475E1,1.005304725E1
1.552602750E0,3.570075989E-1,8.412506104E-1,1.014006363E1,1.018116140E1
1.562627750E0,3.329077148E-1,8.719367981E-1,1.022598495E1,1.026848916E1
1.572652750E0,2.862048340E-1,8.470884705E-1,1.015233810E1,1.019163584E1
1.582677750E0,3.165916443E-1,8.316705322E-1,1.005099884E1,1.009031634E1
1.592701750E0,3.766168213E-1,8.698411560E-1,9.930499420E0,9.975634446E0
1.602726750E0,3.185375977E-1,8.981323242E-1,9.788594513E0,9.834871144E0
1.612751750E0,2.924917603E-1,9.047186279E-1,9.661808167E0,9.708481049E0
1.622775750E0,3.059637451E-1,9.282197571E-1,9.601782990E0,9.651395874E0
1.632800750E0,3.029699707E-1,9.533674622E-1,9.565708008E0,9.617872426E0
1.642825750E0,3.378474426E-1,9.493258667E-1,9.536967773E0,9.590052910E0
1.652850750E0,3.194357300E-1,9.343569946E-1,9.551188202E0,9.602096555E0
1.662874750E0,2.601589966E-1,8.924441528E-1,9.653425598E0,9.698080483E0
1.672899750E0,2.559677124E-1,8.798703003E-1,9.762398987E0,9.805311071E0
1.682924750E0,2.815644836E-1,8.999285889E-1,9.846374359E0,9.891422448E0
1.692949750E0,3.183879089E-1,9.154962158E-1,9.965077515E0,1.001210637E1
1.702973750E0,2.802172852E-1,8.500822449E-1,1.000010468E1,1.004008242E1
1.712998750E0,2.971321106E-1,7.536827087E-1,1.002884491E1,1.006151357E1
1.723023750E0,3.394940186E-1,7.626640320E-1,1.009919861E1,1.013364323E1
1.733048750E0,2.948867798E-1,7.613168335E-1,1.006851242E1,1.010155948E1
1.743072750E0,2.772235107E-1,8.352630615E-1,1.000938538E1,1.004800044E1
1.753097750E0,2.707868958E-1,8.589138794E-1,9.923014984E0,9.963798722E0
1.763122833E0,2.827619934E-1,8.634045410E-1,9.846524048E0,9.888349588E0
1.773147833E0,2.665956116E-1,8.641529846E-1,9.825417938E0,9.866948427E0
1.783171833E0,2.646496582E-1,8.375083923E-1,9.794282684E0,9.833586988E0
1.793196833E0,2.704875183E-1,8.279283142E-1,9.749675446E0,9.788503465E0
1.803221833E0,3.005749512E-1,8.719367981E-1,9.662706299E0,9.706622075E0
1.813246833E0,3.616479492E-1,8.385562134E-1,9.601034546E0,9.644367792E0
1.823270833E0,3.342549133E-1,8.321195984E-1,9.673932953E0,9.715406741E0
1.833295833E0,3.394940186E-1,8.318202209E-1,9.830956421E0,9.871924089E0
1.843320833E0,3.155438232E-1,8.196954346E-1,9.978549500E0,1.001713126E1
1.853344833E0,2.401007080E-1,7.818241882E-1,1.006462051E1,1.009779597E1
1.863369833E0,2.145039368E-1,7.773335266E-1,1.009665390E1,1.012880444E1
1.873394833E0,2.475851440E-1,7.750881958E-1,1.002944366E1,1.006239536E1
1.883419833E0,2.965333557E-1,8.316705322E-1,9.965077515E0,1.000411804E1
1.893443833E0,3.252735901E-1,8.487350464E-1,9.946366425E0,9.987810528E0
1.903468833E0,2.854563904E-1,8.367599487E-1,9.887688446E0,9.927136313E0
1.913493833E0,2.606080627E-1,8.291258240E-1,9.776619415E0,9.815174649E0
1.923518833E0,2.409988403E-1,8.431965637E-1,9.678273926E0,9.717924010E0
1.933542833E0,2.778222656E-1,8.756790161E-1,9.645192719E0,9.688846243E0
1.943567833E0,3.514691162E-1,9.168434143E-1,9.699080658E0,9.748656215E0
1.953592833E0,3.625460815E-1,9.301657104E-1,9.745633850E0,9.796633455E0
1.963617833E0,3.040177917E-1,9.289682007E-1,9.780361633E0,9.829083498E0
1.973641833E0,2.471360779E-1,8.592132568E-1,9.820478210E0,9.861091012E0
1.983666833E0,2.591111755E-1,7.940986633E-1,9.867480469E0,9.902772445E0
1.993691833E0,3.138972473E-1,7.768844604E-1,9.915380859E0,9.950721508E0
2.003716833E0,2.639012146E-1,7.800279236E-1,9.899663544E0,9.933852510E0
2.013740833E0,2.749781799E-1,8.051756287E-1,9.912237396E0,9.948686898E0
2.023765833E0,3.336561584E-1,8.663983154E-1,9.956694946E0,9.999887336E0
2.033790833E0,2.980302429E-1,8.851094055E-1,9.927805023E0,9.971637441E0
2.043814833E0,2.258802795E-1,8.836125183E-1,9.863887939E0,9.905961754E0
2.053839833E0,2.218386841E-1,8.692424011E-1,9.838590546E0,9.879405786E0
2.063864833E0,2.612068176E-1,8.848100281E-1,9.831106110E0,9.874298209E0
2.073889833E0,2.785707092E-1,9.027726746E-1,9.809251556E0,9.854644399E0
2.083913833E0,3.091072083E-1,9.035211182E-1,9.812993774E0,9.859348077E0
2.093938833E0,3.257226562E-1,9.289682007E-1,9.785001984E0,9.834395812E0
2.103963833E0,3.023712158E-1,9.150471497E-1,9.712552643E0,9.760246845E0
2.113988833E0,2.941383362E-1,9.033714294E-1,9.662556610E0,9.709150197E0
2.124012833E0,3.049159241E-1,9.123527527E-1,9.744286652E0,9.791653773E0
2.134037833E0,2.817141724E-1,8.620573425E-1,9.878856812E0,9.920399067E0
2.144062833E0,2.417472839E-1,8.646020508E-1,9.926906891E0,9.967419871E0
2.154087833E0,2.658471680E-1,9.120533752E-1,9.930798798E0,9.976135566E0
2.164111833E0,2.377056885E-1,8.818162537E-1,9.828561401E0,9.870902852E0
2.174136833E0,2.347119141E-1,9.009764099E-1,9.771380310E0,9.815636573E0
2.184161833E0,2.930905151E-1,9.707313538E-1,9.798773346E0,9.851100471E0
2.194186833E0,3.442840576E-1,9.653425598E-1,9.833201752E0,9.886469262E0
2.204210833E0,3.315605164E-1,9.705816650E-1,9.863588562E0,9.916770667E0
2.214235833E0,2.243833923E-1,9.738748169E-1,9.873468018E0,9.923918115E0
2.224260833E0,1.814227295E-1,9.346563721E-1,9.884994049E0,9.930740360E0
2.234285833E0,2.267784119E-1,9.183403015E-1,9.894723816E0,9.939835851E0
2.244309833E0,3.171903992E-1,8.978329468E-1,9.911938019E0,9.957571443E0
2.254334833E0,3.863465881E-1,8.866062927E-1,1.003423370E1,1.008073313E1
2.264359833E0,3.121009827E-1,8.765771484E-1,1.013063324E1,1.017327501E1
2.274383833E0,2.406994629E-1,8.518785095E-1,1.009725266E1,1.013598266E1
2.284408833E0,2.347119141E-1,8.300239563E-1,1.002151016E1,1.005856329E1
2.294433833E0,2.252815247E-1,8.247848511E-1,9.862989807E0,9.899979280E0
2.304458833E0,2.736309814E-1,8.472381592E-1,9.760303345E0,9.800826893E0
2.314482833E0,3.305126953E-1,8.717871094E-1,9.772577820E0,9.816951087E0
2.324507833E0,2.881507874E-1,9.131011963E-1,9.754914551E0,9.801792824E0
2.334532833E0,2.233355713E-1,9.551637268E-1,9.725575562E0,9.774918748E0
2.344557833E0,1.884580994E-1,9.794132996E-1,9.664352875E0,9.715682341E0
2.354581833E0,2.116598511E-1,1.033001862E0,9.592502289E0,9.650284602E0
2.364606833E0,1.666035461E-1,1.036295013E0,9.489666138E0,9.547535153E0
2.374631833E0,1.234931946E-1,1.012644196E0,9.420959015E0,9.476031215E0
2.384656833E0,1.353186035E-1,1.009949799E0,9.469907227E0,9.524570993E0
2.394680833E0,1.270857239E-1,9.494755554E-1,9.542057190E0,9.590021378E0
2.404705833E0,1.240919495E-1,9.478289795E-1,9.705666962E0,9.752627839E0
2.414730833E0,2.061213684E-1,9.677375793E-1,9.858349457E0,9.907878484E0
2.424755833E0,2.339634705E-1,9.509724426E-1,9.964778137E0,1.001278637E1
2.434779833E0,2.404000854E-1,9.592053223E-1,9.996362457E0,1.004515452E1
2.444804833E0,2.600093079E-1,9.500743103E-1,1.003393433E1,1.008216664E1
2.454829833E0,2.630030823E-1,9.839039612E-1,1.003228775E1,1.008385021E1
2.464853833E0,2.538720703E-1,9.255253601E-1,9.994865570E0,1.004083592E1
2.474878833E0,2.830613708E-1,9.211843872E-1,9.954599304E0,1.000113752E1
2.484903833E0,3.118016052E-1,9.376501465E-1,9.877359924E0,9.926663443E0
2.494928833E0,3.625460815E-1,9.255253601E-1,9.844877472E0,9.894930484E0
2.504952833E0,3.676354980E-1,9.380992126E-1,9.818532257E0,9.870094309E0
2.514977833E0,3.451821899E-1,9.069639587E-1,9.750423889E0,9.798596858E0
2.525002833E0,2.912942505E-1,9.199868774E-1,9.710157623E0,9.757991047E0
2.535027833E0,2.847079468E-1,9.135502625E-1,9.665400696E0,9.712651713E0
2.545051833E0,3.296145630E-1,9.930349731E-1,9.700427856E0,9.756693334E0
2.555076833E0,2.969824219E-1,1.066831512E0,9.653724976E0,9.717033186E0
2.565101833E0,2.791694641E-1,1.041085052E0,9.638456726E0,9.698538124E0
2.575126833E0,3.736230469E-1,1.035097504E0,9.679920502E0,9.742272935E0
2.585150833E0,3.854484558E-1,9.889933777E-1,9.800270233E0,9.857584646E0
2.595175833E0,3.387455750E-1,9.388476562E-1,9.883646851E0,9.933914563E0
2.605200833E0,3.282673645E-1,9.485774231E-1,9.945318604E0,9.995845173E0
2.615224833E0,3.348536682E-1,9.686357117E-1,9.942773895E0,9.995455710E0
2.625249833E0,3.046165466E-1,9.750723267E-1,9.905950470E0,9.958484423E0
2.635274833E0,3.149450684E-1,1.003662872E0,9.910890198E0,9.966557784E0
2.645299833E0,2.959346008E-1,1.002465363E0,9.898466034E0,9.953499079E0
2.655323833E0,3.071612549E-1,9.307644653E-1,9.926607513E0,9.974878809E0
2.665348833E0,2.775228882E-1,9.711804199E-1,9.971065063E0,1.002209304E1
2.675373833E0,2.764750671E-1,9.834548950E-1,9.949659576E0,1.000196719E1
2.685398833E0,3.366499329E-1,9.909393311E-1,9.906249847E0,9.961379421E0
2.695422833E0,3.297642517E-1,9.836045837E-1,9.844129028E0,9.898641259E0
2.705447833E0,2.968327332E-1,9.699829102E-1,9.778116302E0,9.830591790E0
2.715472833E0,3.185375977E-1,1.005608826E0,9.771080933E0,9.827855204E0
2.725497833E0,2.580633545E-1,1.047072601E0,9.660311279E0,9.720317471E0
2.735521833E0,1.255888367E-1,1.059945831E0,9.502239990E0,9.561998879E0
2.745546833E0,1.901046753E-1,9.692344666E-1,9.469907227E0,9.521276076E0
2.755571833E0,4.255650330E-1,9.954299927E-1,9.679920502E0,9.740269369E0
2.765595375E0,3.604504395E-1,1.066831512E0,9.819280701E0,9.883639384E0
2.775620375E0,1.601669312E-1,1.031055908E0,9.889335022E0,9.944228321E0
2.785645375E0,1.836680603E-1,9.422904968E-1,9.977501678E0,1.002358145E1
2.795670375E0,2.776725769E-1,9.087602234E-1,1.005593857E1,1.010073501E1
2.805694375E0,2.865042114E-1,9.439370728E-1,1.004381378E1,1.009214036E1
2.815719375E0,1.661544800E-1,9.898915100E-1,9.884245605E0,9.935079451E0
2.825744375E0,9.145980835E-2,9.909393311E-1,9.711355133E0,9.762210005E0
2.835769375E0,1.755848694E-1,9.904902649E-1,9.586664429E0,9.639296441E0
2.845793375E0,2.927911377E-1,1.042132874E0,9.601483612E0,9.662311066E0
2.855818375E0,2.754272461E-1,1.033151550E0,9.714797974E0,9.773462128E0
2.865843375E0,2.125579834E-1,9.770182800E-1,9.816735992E0,9.867525078E0
2.875868375E0,1.871109009E-1,8.857081604E-1,9.878108368E0,9.919501719E0
2.885892375E0,2.203417969E-1,8.455915833E-1,9.953850861E0,9.992133035E0
2.895917375E0,2.288740540E-1,8.930429077E-1,9.995164948E0,1.003759091E1
2.905942375E0,2.474354553E-1,9.484277344E-1,1.006432114E1,1.011193846E1
2.915966375E0,2.531236267E-1,9.416917419E-1,1.009949799E1,1.014646315E1
2.925991375E0,2.086660767E-1,9.214837646E-1,1.001866608E1,1.006311800E1
2.936016375E0,1.799258423E-1,9.276210022E-1,9.895472260E0,9.940484157E0
2.946041375E0,2.157014465E-1,9.563612366E-1,9.796677704E0,9.845610594E0
2.956065375E0,3.103047180E-1,1.012344818E0,9.756112061E0,9.813401734E0
2.966090375E0,3.206332397E-1,1.031804352E0,9.767338715E0,9.826918716E0
2.976115375E0,3.094065857E-1,1.031504974E0,9.793983307E0,9.853011923E0
2.986140375E0,2.877017212E-1,1.028062134E0,9.776020660E0,9.834137684E0
2.996164375E0,2.815644836E-1,9.961784363E-1,9.766739960E0,9.821448950E0
3.006189375E0,2.827619934E-1,9.783654785E-1,9.773475952E0,9.826392295E0
3.016214375E0,2.225871277E-1,9.933343506E-1,9.760453033E0,9.813393989E0
3.026239375E0,2.833607483E-1,1.015338593E0,9.729617157E0,9.786554848E0
3.036263375E0,3.472778320E-1,1.010099487E0,9.728569336E0,9.787030407E0
3.046288375E0,2.591111755E-1,1.006956024E0,9.740544434E0,9.795882038E0
3.056313375E0,2.293231201E-1,1.031504974E0,9.800719299E0,9.857519485E0
3.066337375E0,3.203338623E-1,1.026415558E0,9.837692413E0,9.896278831E0
3.076362375E0,3.764671326E-1,1.004710693E0,9.911638641E0,9.969541195E0
3.086387375E0,3.433859253E-1,9.898915100E-1,9.982291718E0,1.003712843E1
3.096412375E0,3.179388428E-1,9.862989807E-1,1.000459534E1,1.005812103E1
3.106436375E0,2.890489197E-1,1.003513184E0,9.945168915E0,9.999848635E0
3.116461375E0,2.601589966E-1,9.328601074E-1,9.850565643E0,9.898058101E0
3.126486375E0,2.977308655E-1,9.795629883E-1,9.825417938E0,9.878614527E0
3.136511375E0,3.118016052E-1,1.038690033E0,9.795031128E0,9.854883664E0
3.146535375E0,3.436853027E-1,1.072669373E0,9.718540192E0,9.783596610E0
3.156560375E0,3.547622681E-1,1.080004120E0,9.649084625E0,9.715816964E0
3.166585375E0,4.224215698E-1,1.086590424E0,9.600136414E0,9.670663777E0
3.176609375E0,4.218228149E-1,1.123563538E0,9.644743652E0,9.719125970E0
3.186634375E0,3.097059631E-1,1.066981201E0,9.694589996E0,9.758044982E0
3.196659375E0,3.049159241E-1,9.880952454E-1,9.752519531E0,9.807188340E0
3.206684375E0,3.785627747E-1,9.602531433E-1,9.847571869E0,9.901518449E0
3.216708375E0,3.775149536E-1,9.636959839E-1,9.885742493E0,9.939775255E0
3.226733375E0,3.755690002E-1,9.851014709E-1,9.908345490E0,9.964275554E0
3.236758375E0,3.718267822E-1,9.858499146E-1,9.899663544E0,9.955576000E0
3.246783375E0,3.399430847E-1,9.987231445E-1,9.834698639E0,9.891122613E0
3.256807375E0,3.194357300E-1,1.004710693E0,9.845476227E0,9.901761707E0
3.266832375E0,2.884501648E-1,1.008153534E0,9.852212219E0,9.907858631E0
3.276857375E0,3.061134338E-1,1.034349060E0,9.792187042E0,9.851421749E0
3.286881375E0,3.456312561E-1,1.053808594E0,9.760602722E0,9.823407709E0
3.296906375E0,3.570075989E-1,1.094074860E0,9.757309570E0,9.824945001E0
3.306931375E0,3.122506714E-1,1.121168518E0,9.746981049E0,9.816219175E0
3.316956375E0,2.679428101E-1,1.076411591E0,9.716893616E0,9.780003926E0
3.326980375E0,3.336561584E-1,1.045575714E0,9.717192993E0,9.778977179E0
3.337005375E0,3.287164307E-1,1.053509216E0,9.783954163E0,9.845998945E0
3.347030375E0,3.097059631E-1,1.007554779E0,9.835147705E0,9.891471822E0
3.357055375E0,2.737806702E-1,9.963281250E-1,9.880353699E0,9.934234485E0
3.367079375E0,2.327659607E-1,1.004561005E0,9.946067047E0,9.999378606E0
3.377104375E0,2.532733154E-1,9.864486694E-1,9.950857086E0,1.000283885E1
3.387129375E0,2.736309814E-1,9.589059448E-1,9.954000549E0,1.000382434E1
3.397154375E0,2.597099304E-1,9.747729492E-1,9.908794556E0,9.960012103E0
3.407178375E0,3.034190369E-1,9.834548950E-1,9.865983582E0,9.919520083E0
3.417203375E0,3.074606323E-1,1.027313690E0,9.807754669E0,9.866202771E0
3.427228375E0,2.709365845E-1,1.042581940E0,9.784852295E0,9.843968619E0
3.437252375E0,2.466870117E-1,1.020877075E0,9.754914551E0,9.811289537E0
3.447277375E0,2.616558838E-1,1.030906219E0,9.756710815E0,9.814511571E0
3.457302375E0,3.101550293E-1,1.037043457E0,9.765692139E0,9.825497352E0
3.467327375E0,3.008743286E-1,1.055904236E0,9.802216187E0,9.863513638E0
3.477351375E0,3.186872864E-1,1.064436493E0,9.877808990E0,9.940105487E0
3.487376375E0,3.559597778E-1,1.073866882E0,9.906698914E0,9.971087243E0
3.497401375E0,3.308120728E-1,1.075363770E0,9.896370392E0,9.960120019E0
3.507426375E0,3.454815674E-1,1.076710968E0,9.874665527E0,9.939199329E0
3.517450375E0,3.391946411E-1,1.085392914E0,9.808054047E0,9.873755869E0
3.527475375E0,2.751278687E-1,1.103654938E0,9.735904083E0,9.802121091E0
3.537500375E0,2.788700867E-1,1.089135132E0,9.698481903E0,9.763428449E0
3.547524375E0,2.956352234E-1,1.067130890E0,9.657467194E0,9.720742827E0
3.557549375E0,2.981799316E-1,1.043629761E0,9.701625366E0,9.762151868E0
3.567574375E0,3.201841736E-1,1.048569489E0,9.741292877E0,9.802795662E0
3.577599375E0,3.454815674E-1,1.045276337E0,9.750423889E0,9.812376173E0
3.587623375E0,3.706292725E-1,1.083446960E0,9.745484161E0,9.812526938E0
3.597648375E0,3.674858093E-1,1.132544861E0,9.696985016E0,9.769811773E0
3.607673375E0,3.577560425E-1,1.125808868E0,9.700278168E0,9.771941032E0
3.617698375E0,3.144960022E-1,1.104104004E0,9.780511322E0,9.847657341E0
3.627722375E0,2.656974792E-1,1.080752563E0,9.836345215E0,9.899106447E0
3.637747375E0,2.936892700E-1,1.061442719E0,9.886041870E0,9.947197489E0
3.647772375E0,3.640429688E-1,1.025517426E0,9.899214478E0,9.958848354E0
3.657796375E0,3.686833191E-1,1.051563263E0,9.869426422E0,9.932134241E0
3.667821375E0,3.363505554E-1,1.077010345E0,9.845027161E0,9.909472376E0
3.677846375E0,3.382965088E-1,1.080902252E0,9.791588287E0,9.856875539E0
3.687871375E0,3.597019958E-1,1.068927155E0,9.783205719E0,9.848000047E0
3.697895375E0,3.284170532E-1,1.046174469E0,9.834998016E0,9.895934759E0
3.707920375E0,3.113525391E-1,1.051114197E0,9.901010742E0,9.961515707E0
3.717945375E0,3.303630066E-1,1.082997894E0,9.938582611E0,1.000287201E1
3.727970375E0,3.242257690E-1,1.094374237E0,9.865833893E0,9.931639126E0
3.737994375E0,3.116519165E-1,1.102756805E0,9.737700348E0,9.804897121E0
3.748019375E0,3.324586487E-1,1.105002136E0,9.619595947E0,9.688559473E0
3.758044375E0,3.695814514E-1,1.140029297E0,9.532177734E0,9.607219661E0
3.768071833E0,3.748205566E-1,1.151555328E0,9.529483337E0,9.606124234E0
3.778096833E0,3.387455750E-1,1.127754822E0,9.588011627E0,9.660048989E0
3.788121833E0,3.233276367E-1,1.083746338E0,9.735155640E0,9.800627644E0
3.798146833E0,3.287164307E-1,1.067579956E0,9.890382843E0,9.953263497E0
3.808170833E0,2.990780640E-1,1.031055908E0,9.973759460E0,1.003137088E1
3.818195833E0,3.019221497E-1,1.024469604E0,9.976154480E0,1.003316267E1
3.828220833E0,3.043171692E-1,1.036444702E0,9.955497437E0,1.001392809E1
3.838245833E0,3.484753418E-1,1.040486298E0,9.909692688E0,9.970258571E0
3.848269833E0,3.556604004E-1,1.071621552E0,9.885143738E0,9.949418766E0
3.858294833E0,3.365002441E-1,1.071172485E0,9.854906616E0,9.918660561E0
3.868319833E0,3.264710999E-1,1.083147583E0,9.785600739E0,9.850775293E0
3.878343833E0,2.856060791E-1,1.101259918E0,9.692194977E0,9.758739043E0
3.888368833E0,2.912942505E-1,1.082399139E0,9.614207153E0,9.679329492E0
3.898393833E0,3.579057312E-1,1.099014587E0,9.642498322E0,9.711524260E0
3.908418833E0,3.507206726E-1,1.128054199E0,9.732161865E0,9.803595557E0
3.918442833E0,3.381468201E-1,1.101259918E0,9.809550934E0,9.876963410E0
3.928467833E0,3.585044861E-1,1.059945831E0,9.899214478E0,9.962251648E0
3.938492833E0,3.634442139E-1,1.044078827E0,9.908944244E0,9.970424682E0
3.948517833E0,2.896476746E-1,1.034648438E0,9.857451324E0,9.915832783E0
3.958541833E0,3.107537842E-1,1.026565247E0,9.815837860E0,9.874263366E0
3.968566833E0,3.376977539E-1,1.055305481E0,9.780511322E0,9.843074273E0
3.978591833E0,3.171903992E-1,1.056502991E0,9.692793732E0,9.755360508E0
3.988615833E0,3.159928894E-1,1.110241241E0,9.672436066E0,9.741073173E0
3.998640833E0,3.143463135E-1,1.124761047E0,9.699230347E0,9.769287095E0
4.008665833E0,3.415896606E-1,1.121018829E0,9.779313812E0,9.849281464E0
4.018690833E0,3.418890381E-1,1.106049957E0,9.830657043E0,9.898588411E0
4.028714833E0,2.941383362E-1,1.085093536E0,9.835297394E0,9.899344431E0
4.038739833E0,2.634521484E-1,1.028211823E0,9.847422180E0,9.904461125E0
4.048764833E0,2.683918762E-1,9.994715881E-1,9.885293427E0,9.939316062E0
4.058788833E0,3.194357300E-1,1.021625519E0,9.942474518E0,9.999927871E0
4.068813833E0,3.347039795E-1,1.044976959E0,9.921518097E0,9.982010065E0
4.078838833E0,3.879931641E-1,1.072369995E0,9.861492920E0,9.927213038E0
4.088863833E0,4.314028931E-1,1.110690308E0,9.792486420E0,9.864711435E0
4.098887833E0,3.878434753E-1,1.091530151E0,9.717492371E0,9.786292383E0
4.108912833E0,3.887416077E-1,1.073417816E0,9.730515289E0,9.797258476E0
4.118937833E0,3.363505554E-1,1.051862640E0,9.790091400E0,9.852179268E0
4.128962833E0,3.266207886E-1,1.042432251E0,9.915680237E0,9.975673446E0
4.138986833E0,3.333567810E-1,1.084345093E0,9.948013000E0,1.001248689E1
4.149011833E0,3.119512939E-1,1.063089294E0,9.828860779E0,9.891105938E0
4.159036833E0,2.975811768E-1,1.075513458E0,9.744436340E0,9.808125374E0
4.169060833E0,3.026705933E-1,1.038989410E0,9.688003693E0,9.748257487E0
4.179085833E0,3.234773254E-1,1.044827271E0,9.676178284E0,9.737798919E0
4.189110833E0,3.668870544E-1,1.077758789E0,9.750723267E0,9.816963601E0
4.199135833E0,3.611988831E-1,1.076561279E0,9.816735992E0,9.882193803E0
4.209159833E0,4.102967834E-1,1.079405365E0,9.920320587E0,9.987302936E0
4.219184833E0,4.052073669E-1,1.079255676E0,9.947713623E0,1.001428940E1
4.229209833E0,3.438349915E-1,1.057850189E0,9.918075256E0,9.980254822E0
4.239234833E0,2.974314880E-1,1.051413574E0,9.833650818E0,9.894171234E0
4.249258833E0,3.049159241E-1,1.054407349E0,9.775571594E0,9.836998962E0
4.259283833E0,3.014730835E-1,1.083596649E0,9.801767120E0,9.866088708E0
4.269308833E0,2.276765442E-1,1.080303497E0,9.849218445E0,9.910902897E0
4.279332833E0,2.234852600E-1,1.079105988E0,9.777966614E0,9.839870248E0
4.289357833E0,2.579136658E-1,1.081800385E0,9.755962372E0,9.819145244E0
4.299382833E0,3.056643677E-1,1.144969025E0,9.865085449E0,9.936010049E0
4.309407833E0,2.429447937E-1,1.094224548E0,9.838590546E0,9.902232751E0
4.319431833E0,2.284249878E-1,1.065334625E0,9.794132996E0,9.854550065E0
4.329456833E0,2.624043274E-1,1.051413574E0,9.783056030E0,9.842891436E0
4.339481833E0,3.032693481E-1,1.025367737E0,9.844428406E0,9.902329116E0
4.349505833E0,2.606080627E-1,1.050665131E0,9.866133270E0,9.925341278E0
4.359530833E0,2.372566223E-1,1.008602600E0,9.872270508E0,9.926494592E0
4.369555833E0,2.878514099E-1,1.025667114E0,9.904752960E0,9.961876463E0
4.379580833E0,2.528242493E-1,1.036594391E0,9.892179108E0,9.949555544E0
4.389604833E0,2.567161560E-1,1.072369995E0,9.858648834E0,9.920122853E0
4.399629833E0,2.523751831E-1,1.035845947E0,9.848769379E0,9.906307502E0
4.409654833E0,1.951940918E-1,1.043031006E0,9.762848053E0,9.820347067E0
4.419678833E0,2.312690735E-1,1.068328400E0,9.673334198E0,9.734896274E0
4.429703833E0,2.841091919E-1,1.073118439E0,9.638007660E0,9.701726283E0
4.439728833E0,2.857557678E-1,1.086440735E0,9.675579529E0,9.740577449E0
4.449753833E0,2.634521484E-1,1.089733887E0,9.793833618E0,9.857794070E0
4.459777833E0,2.484832764E-1,1.057101746E0,9.825118561E0,9.884946271E0
4.469802833E0,1.871109009E-1,1.017733612E0,9.799222412E0,9.853707529E0
4.479827833E0,2.058219910E-1,1.000669098E0,9.809401245E0,9.862456800E0
4.489852833E0,1.784289551E-1,1.029708710E0,9.770482178E0,9.826212846E0
4.499876833E0,1.893562317E-1,1.028211823E0,9.705217896E0,9.761369255E0
4.509901833E0,2.390528870E-1,1.042282562E0,9.721533966E0,9.780169829E0
4.519926833E0,3.248245239E-1,1.072369995E0,9.774823151E0,9.838834077E0
4.529950833E0,3.165916443E-1,1.113833771E0,9.808353424E0,9.876469654E0
4.539975833E0,3.267704773E-1,1.090632019E0,9.820777588E0,9.886552967E0
4.550000833E0,3.158432007E-1,1.056502991E0,9.906399536E0,9.967582820E0
4.560025833E0,2.585124207E-1,1.036893768E0,9.949659576E0,1.000688278E1
4.570049833E0,2.733316040E-1,1.029708710E0,9.929301910E0,9.986292937E0
4.580074833E0,2.538720703E-1,9.630972290E-1,9.868827667E0,9.918959967E0
4.590099833E0,2.891986084E-1,9.382489014E-1,9.870923309E0,9.919630730E0
4.600123833E0,2.966830444E-1,9.921368408E-1,9.940378876E0,9.994172729E0
4.610148833E0,2.664459229E-1,1.069076843E0,9.940977631E0,1.000184758E1
4.620173833E0,2.496807861E-1,1.120120697E0,9.908794556E0,9.975029845E0
4.630198833E0,3.070115662E-1,1.062939606E0,9.810449066E0,9.872639342E0
4.640222833E0,3.445834351E-1,1.063837738E0,9.717492371E0,9.781622894E0
4.650247833E0,3.362008667E-1,1.058898010E0,9.790091400E0,9.852927770E0
4.660272833E0,2.875520325E-1,1.062340851E0,9.806856537E0,9.868418789E0
4.670297833E0,2.555186462E-1,1.049317932E0,9.788594513E0,9.847991696E0
4.680321833E0,2.269281006E-1,1.007105713E0,9.730215912E0,9.784828050E0
4.690346833E0,1.755848694E-1,1.042731628E0,9.686806183E0,9.744348789E0
4.700371833E0,1.995350647E-1,1.088536377E0,9.638456726E0,9.701781988E0
4.710395833E0,2.580633545E-1,1.050665131E0,9.662257233E0,9.722638980E0
4.720420833E0,3.019221497E-1,1.085093536E0,9.701325989E0,9.766489180E0
4.730445833E0,2.703378296E-1,1.112636261E0,9.758656769E0,9.825600436E0
4.740470833E0,2.903961182E-1,1.078207855E0,9.804760895E0,9.868140569E0
4.750494833E0,2.625540161E-1,1.001866608E0,9.808353424E0,9.862883361E0
4.760519833E0,2.950364685E-1,9.843530273E-1,9.852062531E0,9.905510260E0
4.770541458E0,2.519261169E-1,9.641450500E-1,9.952803040E0,1.000256621E1
4.780565458E0,1.927990723E-1,9.624984741E-1,9.999954987E0,1.004801844E1
4.790590458E0,1.960922241E-1,1.033600616E0,9.993069305E0,1.004829421E1
4.800615458E0,2.266287231E-1,1.053658905E0,9.880054321E0,9.938663444E0
4.810640458E0,2.508782959E-1,1.071471863E0,9.761800232E0,9.823631489E0
4.820664458E0,2.633024597E-1,1.081051941E0,9.710606689E0,9.774143633E0
4.830689458E0,3.194357300E-1,1.051413574E0,9.668693848E0,9.730937797E0
4.840714458E0,3.718267822E-1,1.067430267E0,9.743837585E0,9.809181078E0
4.850738458E0,3.505709839E-1,1.039438477E0,9.773176575E0,9.834546900E0
4.860763458E0,2.787203979E-1,1.040037231E0,9.781409454E0,9.840494572E0
4.870788458E0,2.522254944E-1,1.019679565E0,9.750423889E0,9.806840986E0
4.880813458E0,2.505789185E-1,9.976753235E-1,9.757459259E0,9.811531839E0
4.890837458E0,2.353106689E-1,9.828561401E-1,9.741891632E0,9.794173261E0
4.900862458E0,3.460803223E-1,9.979747009E-1,9.778265991E0,9.835151798E0
4.910887458E0,3.962260437E-1,1.030457153E0,9.793983307E0,9.856010655E0
4.920911458E0,4.444258118E-1,1.016386414E0,9.884395294E0,9.946447907E0
4.930936458E0,4.803511047E-1,1.004860382E0,9.972412262E0,1.003441517E1
4.940961458E0,4.174818420E-1,9.836045837E-1,1.000983444E1,1.006670525E1
4.950986458E0,3.417393494E-1,9.379495239E-1,9.943821716E0,9.993804352E0
4.961010458E0,3.068618774E-1,9.038204956E-1,9.839638367E0,9.885825150E0
4.971035458E0,3.294648743E-1,9.325607300E-1,9.811945953E0,9.861668216E0
4.981060458E0,3.522175598E-1,9.984237671E-1,9.814340973E0,9.871281374E0
4.991085458E0,3.043171692E-1,1.010099487E0,9.831106110E0,9.887545563E0
5.001109458E0,2.883004761E-1,1.005608826E0,9.850415955E0,9.905809445E0
5.011134458E0,3.471281433E-1,9.967771912E-1,9.817185059E0,9.873762464E0
5.021159458E0,4.215234375E-1,9.785151672E-1,9.846973114E0,9.904446145E0
5.031183458E0,4.526586914E-1,9.723779297E-1,9.888287201E0,9.946287875E0
5.041208458E0,4.034111023E-1,9.830058289E-1,9.885892181E0,9.942831850E0
5.051233458E0,3.400927734E-1,9.464817810E-1,9.803862762E0,9.855314096E0
5.061258458E0,3.215313721E-1,9.548643494E-1,9.740095367E0,9.792068531E0
5.071282458E0,3.309617615E-1,9.575587463E-1,9.700278168E0,9.753043165E0
5.081307458E0,2.954855347E-1,9.851014709E-1,9.680818634E0,9.735295888E0
5.091332458E0,3.251239014E-1,9.651928711E-1,9.733509064E0,9.786649147E0
5.101356458E0,4.029620361E-1,9.491761780E-1,9.834998016E0,9.888907918E0
5.111381458E0,4.701722717E-1,9.830058289E-1,9.911039886E0,9.970760957E0
5.121406458E0,4.528083801E-1,1.021326141E0,9.964927826E0,1.002735903E1
5.131430458E0,3.722758484E-1,9.900411987E-1,9.904902649E0,9.961218167E0
5.141455458E0,3.923341370E-1,9.677375793E-1,9.863887939E0,9.919008387E0
5.151480458E0,3.510200500E-1,9.710307312E-1,9.838889923E0,9.892920230E0
5.161505458E0,2.688409424E-1,9.527687073E-1,9.822873230E0,9.872632990E0
5.171529458E0,3.095562744E-1,9.306147766E-1,9.847422180E0,9.896140285E0
5.181554458E0,3.369493103E-1,9.648934937E-1,9.854756927E0,9.907612648E0
5.191579458E0,3.600013733E-1,9.732760620E-1,9.852511597E0,9.907010248E0
5.201604458E0,4.315525818E-1,9.900411987E-1,9.828711090E0,9.887870392E0
5.211628458E0,4.538562012E-1,9.868977356E-1,9.813742218E0,9.873676565E0
5.221653458E0,4.026626587E-1,9.936337280E-1,9.767937469E0,9.826598985E0
5.231678458E0,3.640429688E-1,9.854008484E-1,9.705517273E0,9.762203012E0
5.241702458E0,3.342549133E-1,9.616003418E-1,9.710157623E0,9.763378648E0
5.251727458E0,3.568579102E-1,9.717791748E-1,9.759405212E0,9.814157755E0
5.261752458E0,3.555107117E-1,1.015039215E0,9.760902100E0,9.819974657E0
5.271777458E0,3.561094666E-1,9.862989807E-1,9.785151672E0,9.841178430E0
5.281801458E0,3.838018799E-1,9.859996033E-1,9.875264282E0,9.931784520E0
5.291826458E0,3.692820740E-1,9.587562561E-1,9.923763428E0,9.976806271E0
5.301851458E0,3.456312561E-1,9.180409241E-1,9.959988098E0,1.000817781E1
5.311875458E0,3.866459656E-1,9.327104187E-1,9.941426697E0,9.992567668E0
5.321900458E0,4.323010254E-1,9.515711975E-1,9.897567902E0,9.952598771E0
5.331925458E0,3.808081055E-1,9.635462952E-1,9.814790039E0,9.869323168E0
5.341950458E0,3.805087280E-1,9.889933777E-1,9.787846069E0,9.845040654E0
5.351974458E0,3.665876770E-1,9.928852844E-1,9.818681946E0,9.875561901E0
5.361999458E0,3.769161987E-1,9.852511597E-1,9.834698639E0,9.891111312E0
5.372024458E0,3.957769775E-1,1.014141083E0,9.868228912E0,9.928094652E0
5.382048458E0,4.079017639E-1,1.049168243E0,9.855056305E0,9.919136688E0
5.392073458E0,3.674858093E-1,9.954299927E-1,9.777218170E0,9.834628709E0
5.402098458E0,3.418890381E-1,9.705816650E-1,9.726473694E0,9.780756995E0
5.412123458E0,3.409909058E-1,9.470805359E-1,9.694440308E0,9.746558840E0
5.422147458E0,3.938310242E-1,9.533674622E-1,9.744885406E0,9.799326711E0
5.432172458E0,4.364923096E-1,1.009500732E0,9.841584320E0,9.902848034E0
5.442197458E0,4.291575623E-1,1.048868866E0,9.926308136E0,9.990790525E0
5.452221458E0,3.359014893E-1,1.035247192E0,9.911339264E0,9.970918341E0
5.462246458E0,3.454815674E-1,9.868977356E-1,9.875563660E0,9.930764434E0
5.472271458E0,3.827540588E-1,9.852511597E-1,9.816436615E0,9.873178229E0
5.482296458E0,3.752696228E-1,1.009201355E0,9.752818909E0,9.812073753E0
5.492320458E0,3.938310242E-1,1.015188904E0,9.751621399E0,9.812228661E0
5.502345458E0,4.355941772E-1,1.028810577E0,9.813592529E0,9.876982931E0
5.512370458E0,4.219725037E-1,1.067280579E0,9.872869263E0,9.939350890E0
5.522394458E0,3.841012573E-1,1.059796143E0,9.868228912E0,9.932403712E0
5.532419458E0,3.617976379E-1,1.026415558E0,9.818532257E0,9.878663984E0
5.542444458E0,4.010160828E-1,1.034049683E0,9.861043854E0,9.923218154E0
5.552468458E0,4.198768616E-1,1.010249176E0,9.876012726E0,9.936424273E0
5.562493458E0,4.367916870E-1,1.051862640E0,9.858648834E0,9.924220817E0
5.572518458E0,4.598437500E-1,1.025966492E0,9.836345215E0,9.900391442E0
5.582543458E0,4.589456177E-1,1.026116180E0,9.821076965E0,9.885195914E0
5.592567458E0,4.155358887E-1,1.021026764E0,9.782157898E0,9.844073286E0
5.602592458E0,3.984713745E-1,1.013991394E0,9.769134979E0,9.829697667E0
5.612617458E0,4.228706360E-1,1.027313690E0,9.777367859E0,9.840280242E0
5.622641458E0,4.360432434E-1,1.065933380E0,9.828112335E0,9.895359506E0
5.632666458E0,4.372407532E-1,1.091679840E0,9.849817200E0,9.919770321E0
5.642691458E0,4.284091187E-1,1.082249451E0,9.867031403E0,9.935446993E0
5.652716458E0,4.453239441E-1,1.092128906E0,9.862241364E0,9.932515476E0
5.662740458E0,4.996609497E-1,1.136586456E0,9.814340973E0,9.892561780E0
5.672765458E0,4.772076416E-1,1.092128906E0,9.749974823E0,9.822549655E0
5.682790458E0,4.300556946E-1,1.070424042E0,9.755962372E0,9.823927795E0
5.692814458E0,4.225712585E-1,1.075363770E0,9.781858521E0,9.849859381E0
5.702839458E0,3.635939026E-1,1.038989410E0,9.797126770E0,9.858772361E0
5.712864458E0,3.508703613E-1,1.056952057E0,9.809850311E0,9.872862847E0
5.722889458E0,3.911366272E-1,1.100810852E0,9.807904358E0,9.877234445E0
5.732913458E0,4.221221924E-1,1.126707001E0,9.811646576E0,9.885143618E0
5.742938458E0,4.194277954E-1,1.138532410E0,9.759554901E0,9.834687976E0
5.752963458E0,4.177812195E-1,1.134790192E0,9.711804199E0,9.786798799E0
5.762987458E0,4.107458496E-1,1.101409607E0,9.688452759E0,9.759504707E0
5.773012583E0,4.146377563E-1,1.078357544E0,9.707014160E0,9.775525734E0
5.783037583E0,4.073030090E-1,1.095272369E0,9.757159882E0,9.826885888E0
5.793062583E0,3.731739807E-1,1.084045715E0,9.808652802E0,9.875428280E0
5.803086583E0,3.406915283E-1,1.080752563E0,9.850565643E0,9.915530259E0
5.813111583E0,3.782633972E-1,1.109492798E0,9.850116577E0,9.919619652E0
5.823136583E0,3.938310242E-1,1.118174744E0,9.859996033E0,9.931008982E0
5.833160583E0,3.758683777E-1,1.160237274E0,9.845176849E0,9.920430170E0
5.843185583E0,3.875440979E-1,1.144519958E0,9.789941711E0,9.864232108E0
5.853210583E0,3.793112183E-1,1.108894043E0,9.780511322E0,9.850478401E0
5.863235583E0,3.604504395E-1,1.089584198E0,9.749974823E0,9.817287166E0
5.873259583E0,4.212240601E-1,1.088087311E0,9.736502838E0,9.806163940E0
5.883284583E0,4.288581848E-1,1.120120697E0,9.760303345E0,9.833723156E0
5.893309583E0,3.821553040E-1,1.131946106E0,9.814041595E0,9.886493671E0
5.903333583E0,3.664379883E-1,1.126856689E0,9.849517822E0,9.920538500E0
5.913358583E0,4.050576782E-1,1.108444977E0,9.850565643E0,9.921006274E0
5.923383583E0,4.047583008E-1,1.078507233E0,9.818382568E0,9.885729280E0
5.933408583E0,4.273612976E-1,1.078656921E0,9.847272491E0,9.915387736E0
5.943432583E0,4.119433594E-1,1.093775482E0,9.880353699E0,9.949242753E0
5.953457583E0,3.505709839E-1,1.103804626E0,9.839937744E0,9.907858471E0
5.963482583E0,3.414399719E-1,1.071322174E0,9.791887665E0,9.856235412E0
5.973506583E0,3.402424622E-1,1.083746338E0,9.770033112E0,9.835843536E0
5.983531583E0,3.092568970E-1,1.140178986E0,9.749076691E0,9.820394303E0
5.993556583E0,3.272195435E-1,1.147663422E0,9.695787506E0,9.768955897E0
6.003580583E0,3.296145630E-1,1.124461670E0,9.704319763E0,9.774808534E0
6.013605583E0,3.498225403E-1,1.160536652E0,9.733209686E0,9.808393952E0
6.023630583E0,3.987707520E-1,1.147813110E0,9.788444824E0,9.863576690E0
6.033655583E0,4.116439819E-1,1.115330658E0,9.817933502E0,9.889652749E0
6.043679583E0,3.351530457E-1,1.117725677E0,9.767338715E0,9.836795404E0
6.053704583E0,3.347039795E-1,1.101110229E0,9.752519531E0,9.820188781E0
6.063729583E0,3.941304016E-1,1.107846222E0,9.728419647E0,9.799225013E0
6.073753583E0,3.748205566E-1,1.142723694E0,9.735005951E0,9.809008551E0
6.083778583E0,3.412902832E-1,1.156045990E0,9.771230621E0,9.845296808E0
6.093803583E0,3.492237854E-1,1.151255951E0,9.812095642E0,9.885573752E0
6.103828583E0,3.797602844E-1,1.156644745E0,9.807904358E0,9.883169170E0
6.113852583E0,4.191284180E-1,1.148411865E0,9.811945953E0,9.887810771E0
6.123877583E0,4.146377563E-1,1.121318207E0,9.815239105E0,9.887780220E0
6.133902583E0,3.812571716E-1,1.068328400E0,9.810898132E0,9.876254592E0
6.143926583E0,3.992198181E-1,1.050515442E0,9.803413696E0,9.867617709E0
6.153951583E0,4.041595459E-1,1.044677582E0,9.829459534E0,9.893076918E0
6.163976583E0,4.432283020E-1,1.072220306E0,9.866432648E0,9.934414975E0
6.174000583E0,4.442761230E-1,1.131047974E0,9.897118835E0,9.971439818E0
6.184025583E0,3.715274048E-1,1.108444977E0,9.861642609E0,9.930693723E0
6.194050583E0,3.478765869E-1,1.079854431E0,9.845625916E0,9.910774611E0
6.204075583E0,4.248165894E-1,1.090182953E0,9.830507355E0,9.899891053E0
6.214099583E0,4.125421143E-1,1.105151825E0,9.791139221E0,9.861944981E0
6.224124583E0,4.264631653E-1,1.105900269E0,9.775272217E0,9.846869205E0
6.234149583E0,4.558021545E-1,1.128952332E0,9.789342957E0,9.864761755E0
6.244173583E0,4.511618042E-1,1.120569763E0,9.768835602E0,9.843239943E0
6.254198583E0,4.044589233E-1,1.104553070E0,9.799222412E0,9.869568602E0
6.264223583E0,4.314028931E-1,1.123713226E0,9.826016693E0,9.899466851E0
6.274248583E0,4.044589233E-1,1.111738129E0,9.832453308E0,9.903367445E0
6.284272583E0,4.092489624E-1,1.065184937E0,9.829609222E0,9.895621311E0
6.294297583E0,4.267625427E-1,1.054557037E0,9.866881714E0,9.932249069E0
6.304322583E0,4.364923096E-1,1.099763031E0,9.912536774E0,9.982904865E0
6.314346583E0,3.902384949E-1,1.106948090E0,9.874216461E0,9.943730230E0
6.324371583E0,3.844006348E-1,1.092577972E0,9.805958405E0,9.874123288E0
6.334396583E0,4.745132446E-1,1.070124664E0,9.785151672E0,9.854923788E0
6.344421583E0,5.068460083E-1,1.134640503E0,9.771529999E0,9.850233523E0
6.354445583E0,4.415817261E-1,1.155746613E0,9.778864746E0,9.856822022E0
6.364470583E0,4.218228149E-1,1.109642487E0,9.729467468E0,9.801621200E0
6.374495583E0,4.623884583E-1,1.139280853E0,9.712253265E0,9.789771572E0
6.384519583E0,4.556524658E-1,1.137484589E0,9.707014160E0,9.784048971E0
6.394544583E0,4.037104797E-1,1.145867157E0,9.697434082E0,9.773240070E0
6.404569583E0,4.152365112E-1,1.145118713E0,9.703571320E0,9.779724668E0
6.414593583E0,4.659809875E-1,1.126407623E0,9.739945679E0,9.815929617E0
6.424618583E0,4.754113770E-1,1.099313965E0,9.814939728E0,9.887747419E0
6.434643583E0,4.517605591E-1,1.123114471E0,9.887538757E0,9.961370207E0
6.444668583E0,4.616400146E-1,1.085991669E0,9.876461792E0,9.946707341E0
6.454692583E0,4.456233215E-1,1.081800385E0,9.854158173E0,9.923371680E0
6.464717583E0,4.225712585E-1,1.063538361E0,9.834548950E0,9.900910734E0
6.474742583E0,4.210743713E-1,1.080602875E0,9.800719299E0,9.869098489E0
6.484766583E0,4.272116089E-1,1.090332642E0,9.792037354E0,9.861811728E0
6.494791583E0,4.272116089E-1,1.096020813E0,9.789342957E0,9.859767082E0
6.504816583E0,4.586462402E-1,1.105900269E0,9.760902100E0,9.834052144E0
6.514840583E0,4.960684204E-1,1.122815094E0,9.711355133E0,9.788626877E0
6.524865583E0,4.061054993E-1,1.173709259E0,9.658814392E0,9.738337156E0
6.534890583E0,3.827540588E-1,1.141675873E0,9.693542175E0,9.768044040E0
6.544915583E0,4.089495850E-1,1.081051941E0,9.765542450E0,9.833703901E0
6.554939583E0,4.300556946E-1,1.033750305E0,9.758058014E0,9.822081439E0
6.564964583E0,4.348457336E-1,9.915380859E-1,9.722282410E0,9.782382830E0
6.574989583E0,4.882846069E-1,9.915380859E-1,9.762249298E0,9.824616073E0
6.585013583E0,8.951385498E-1,8.553213501E-1,9.788295135E0,9.866284473E0
6.595038583E0,1.068777466E-1,8.683442688E-1,1.000459534E1,1.004277713E1
6.605063583E0,1.092727661E-2,1.528172150E0,1.044438080E1,1.055559187E1
6.615088583E0,5.797444153E-1,1.105301514E0,9.906100159E0,9.984418630E0
6.625112583E0,4.252656555E-1,1.006057892E0,9.635013885E0,9.696726042E0
6.635137583E0,3.412902832E-1,1.090182953E0,9.577383728E0,9.645271225E0
6.645162583E0,4.743635559E-1,1.078058167E0,9.698781281E0,9.770035236E0
6.655186583E0,5.167254639E-1,1.119671631E0,9.825867004E0,9.902945630E0
6.665211583E0,4.444258118E-1,1.143023071E0,9.836345215E0,9.912502370E0
6.675236583E0,4.293072510E-1,1.122665405E0,9.829160156E0,9.902377073E0
6.685260583E0,4.686753845E-1,1.091530151E0,9.829309845E0,9.900829597E0
6.695285583E0,4.876858521E-1,1.083147583E0,9.818382568E0,9.889978890E0
6.705310583E0,4.523593140E-1,1.050216064E0,9.823471985E0,9.889802049E0
6.715335583E0,4.709207153E-1,1.049766998E0,9.830058289E0,9.897162372E0
6.725359583E0,4.971162415E-1,1.080752563E0,9.837842102E0,9.909504926E0
6.735384583E0,5.408253479E-1,1.078207855E0,9.902208252E0,9.975407385E0
6.745409583E0,5.248086548E-1,1.120719452E0,9.925110626E0,1.000196267E1
6.755433583E0,5.188211060E-1,1.122515717E0,9.887239380E0,9.964272147E0
6.765458333E0,5.568420410E-1,1.157093811E0,9.812993774E0,9.896655292E0
6.775483333E0,5.120851135E-1,1.149609375E0,9.680519257E0,9.761981661E0
6.785507333E0,4.854405212E-1,1.129700775E0,9.593699799E0,9.672174118E0
6.795532333E0,4.893324280E-1,1.151106262E0,9.562564545E0,9.644020558E0
6.805557333E0,5.032534790E-1,1.146166534E0,9.564211121E0,9.645781262E0
6.815582333E0,5.605842590E-1,1.124910736E0,9.664053497E0,9.745440415E0
6.825606333E0,5.727090454E-1,1.147513733E0,9.796827393E0,9.880415496E0
6.835631333E0,5.649252319E-1,1.157243500E0,9.908644867E0,9.991976588E0
6.845656333E0,5.897735596E-1,1.095721436E0,9.952353973E0,1.002984486E1
6.855680333E0,5.542973328E-1,1.082099762E0,9.978549500E0,1.005234478E1
6.865705333E0,5.077441406E-1,1.059796143E0,9.956096191E0,1.002520939E1
6.875730333E0,4.731660461E-1,1.047371979E0,9.876312103E0,9.942958057E0
6.885754333E0,4.954696655E-1,1.119671631E0,9.774972839E0,9.851357712E0
6.895779333E0,5.363346863E-1,1.196012878E0,9.663305054E0,9.751798104E0
6.905804333E0,5.935157776E-1,1.194665680E0,9.624385986E0,9.716392987E0
6.915829333E0,6.080355835E-1,1.226100311E0,9.604477386E0,9.701495509E0
6.925853333E0,5.457650757E-1,1.182391205E0,9.579778748E0,9.667888566E0
6.935878333E0,5.589376831E-1,1.135239258E0,9.605974274E0,9.688958729E0
6.945903333E0,5.831872559E-1,1.108145599E0,9.746681671E0,9.826794882E0
6.955927333E0,6.089337158E-1,1.112336884E0,9.926607513E0,1.000727887E1
6.965952333E0,5.840853882E-1,1.072070618E0,1.004276596E1,1.011670101E1
6.975977333E0,5.430706787E-1,1.064735870E0,1.002615051E1,1.009714229E1
6.986002333E0,5.303471375E-1,1.052461395E0,9.950408020E0,1.001995823E1
6.996026333E0,5.391787720E-1,1.091230774E0,9.913584595E0,9.988025724E0
7.006051333E0,5.225633240E-1,1.106648712E0,9.877210236E0,9.952739615E0
7.016076333E0,5.150788879E-1,1.130898285E0,9.869276733E0,9.947203649E0
7.026100333E0,5.505551147E-1,1.148411865E0,9.840686188E0,9.922754930E0
7.036125333E0,5.125341797E-1,1.172212372E0,9.744136963E0,9.827765681E0
7.046150333E0,5.478607178E-1,1.168320465E0,9.651928711E0,9.737805293E0
7.056174333E0,6.011499023E-1,1.179247742E0,9.533824310E0,9.625269473E0
7.066199333E0,6.015989685E-1,1.199306030E0,9.480684814E0,9.575157483E0
7.076224333E0,5.105882263E-1,1.197659454E0,9.537865906E0,9.626316769E0
7.086249333E0,4.457730103E-1,1.154549103E0,9.605974274E0,9.685372422E0
7.096273333E0,4.442761230E-1,1.119072876E0,9.752519531E0,9.826563111E0
7.106298333E0,4.469705200E-1,1.100062408E0,9.833650818E0,9.905079927E0
7.116323333E0,5.183720398E-1,1.082698517E0,9.878258057E0,9.950925981E0
7.126347333E0,6.060896301E-1,1.091530151E0,9.986483002E0,1.006422503E1
7.136372333E0,5.885760498E-1,1.124910736E0,1.007914032E1,1.015878514E1
7.146397333E0,5.390290833E-1,1.089284821E0,1.006267456E1,1.013580352E1
7.156421333E0,5.978567505E-1,1.086740112E0,1.001312759E1,1.008965614E1
7.166446333E0,5.101391602E-1,1.169517975E0,9.917925568E0,9.999663085E0
7.176471333E0,4.141886902E-1,1.146765289E0,9.721234589E0,9.797398881E0
7.186496333E0,3.769161987E-1,1.127904510E0,9.606423340E0,9.679752259E0
7.196520333E0,4.360432434E-1,1.125808868E0,9.593699799E0,9.669366843E0
7.206545333E0,5.379812622E-1,1.191073151E0,9.666448517E0,9.754399316E0
7.216570333E0,4.640350342E-1,1.240320740E0,9.688003693E0,9.778094886E0
7.226594333E0,4.727169800E-1,1.235530701E0,9.672585754E0,9.762628367E0
7.236619333E0,4.802014160E-1,1.161434784E0,9.703271942E0,9.784324736E0
7.246644333E0,4.983137512E-1,1.140927429E0,9.820927277E0,9.899527492E0
7.256668333E0,4.679269409E-1,1.156345367E0,9.945617981E0,1.002354265E1
7.266693333E0,4.095483398E-1,1.134191437E0,1.000190094E1,1.007433087E1
7.276718333E0,4.077520752E-1,1.110989685E0,9.997410278E0,1.006721273E1
7.286743333E0,4.525090027E-1,1.072819061E0,9.903405762E0,9.971617262E0
7.296767333E0,4.667294312E-1,1.129700775E0,9.733958130E0,9.810402697E0
7.306792333E0,4.864883423E-1,1.170865173E0,9.652228088E0,9.735147828E0
7.316817333E0,5.541476440E-1,1.219064941E0,9.632020111E0,9.724659910E0
7.326841333E0,4.879852295E-1,1.210233307E0,9.662107544E0,9.749826482E0
7.336866333E0,4.179309082E-1,1.187929688E0,9.734556885E0,9.815673229E0
7.346891333E0,4.465214539E-1,1.149010620E0,9.749076691E0,9.826703574E0
7.356915333E0,4.891827393E-1,1.140628052E0,9.731712799E0,9.810533426E0
7.366940333E0,5.081932068E-1,1.171014862E0,9.713151398E0,9.796675263E0
7.376965333E0,5.191204834E-1,1.191821594E0,9.750124512E0,9.836404464E0
7.386989333E0,5.245092773E-1,1.175804901E0,9.795031128E0,9.879284485E0
7.397014333E0,4.837939453E-1,1.128353577E0,9.838740234E0,9.915041491E0
7.407039333E0,4.855902100E-1,1.109642487E0,9.889933777E0,9.963829305E0
7.417064333E0,5.078938293E-1,1.091081085E0,9.901459808E0,9.974333081E0
7.427088333E0,4.954696655E-1,1.077758789E0,9.914632416E0,9.985338759E0
7.437113333E0,5.069956970E-1,1.121467896E0,9.901908875E0,9.978102737E0
7.447138333E0,4.549040222E-1,1.128652954E0,9.881551208E0,9.956196535E0
7.457162333E0,4.797523499E-1,1.140178986E0,9.855655060E0,9.932980776E0
7.467187333E0,4.685256958E-1,1.149609375E0,9.784552917E0,9.862991120E0
7.477212333E0,4.258644104E-1,1.168021088E0,9.686207428E0,9.765666802E0
7.487236333E0,4.498146057E-1,1.209185486E0,9.649833069E0,9.735694170E0
7.497261333E0,4.450245667E-1,1.236877899E0,9.644593964E0,9.733761171E0
7.507286333E0,4.375401306E-1,1.235381012E0,9.620793457E0,9.709648519E0
7.517311333E0,4.749623108E-1,1.229543152E0,9.602381744E0,9.692424915E0
7.527335333E0,4.986131287E-1,1.219663696E0,9.664203186E0,9.753615627E0
7.537360333E0,5.445675659E-1,1.203048248E0,9.747430115E0,9.836476644E0
7.547385333E0,5.099894714E-1,1.168470154E0,9.843230896E0,9.925452445E0
7.557409333E0,4.626878357E-1,1.090482330E0,9.880204010E0,9.950962920E0
7.567434333E0,4.424798584E-1,1.048569489E0,9.927805023E0,9.992827376E0
7.577459333E0,4.251159668E-1,1.038839722E0,9.917476501E0,9.980794142E0
7.587483333E0,4.978646851E-1,1.094823303E0,9.940977631E0,1.001346811E1
7.597508333E0,5.530998230E-1,1.171164551E0,9.963730316E0,1.004756028E1
7.607533333E0,5.108876038E-1,1.195563812E0,9.958042145E0,1.004255855E1
7.617557333E0,4.486170959E-1,1.160985718E0,9.930200043E0,1.000789778E1
7.627582333E0,4.454736328E-1,1.152303772E0,9.843380585E0,9.920604421E0
7.637607333E0,4.698728943E-1,1.163979492E0,9.779613190E0,9.859840918E0
7.647632333E0,4.595443726E-1,1.174457703E0,9.678573303E0,9.760395131E0
7.657656333E0,4.921765137E-1,1.186432800E0,9.648336182E0,9.733460412E0
7.667681333E0,4.812492371E-1,1.189276886E0,9.627978516E0,9.713081418E0
7.677706333E0,5.110372925E-1,1.216520233E0,9.649084625E0,9.738886728E0
7.687730333E0,4.972659302E-1,1.219663696E0,9.694440308E0,9.783507848E0
7.697755333E0,4.427792358E-1,1.171164551E0,9.742490387E0,9.822616698E0
7.707780333E0,4.605921936E-1,1.133892059E0,9.796827393E0,9.872977430E0
7.717804333E0,5.137316895E-1,1.141975250E0,9.911189575E0,9.989980306E0
7.727829333E0,4.739144897E-1,1.121767273E0,9.973160706E0,1.004723301E1
7.737854333E0,4.709207153E-1,1.114282837E0,9.959988098E0,1.003318272E1
7.747878333E0,5.153782654E-1,1.145118713E0,9.904004517E0,9.983296905E0
7.757903333E0,5.201683044E-1,1.166524200E0,9.800569611E0,9.883446690E0
7.767931958E0,4.969665527E-1,1.178050232E0,9.719438324E0,9.803175987E0
7.777956958E0,4.805007935E-1,1.122665405E0,9.688901825E0,9.765555652E0
7.787980958E0,4.894821167E-1,1.124162292E0,9.796977081E0,9.873403341E0
7.798005958E0,4.547543335E-1,1.182391205E0,9.802964630E0,9.884481069E0
7.808030958E0,4.159849548E-1,1.191222839E0,9.724228363E0,9.805746917E0
7.818054958E0,4.770579529E-1,1.180894318E0,9.688153381E0,9.771510202E0
7.828079958E0,5.096900940E-1,1.222807159E0,9.754615173E0,9.844163678E0
7.838104958E0,4.255650330E-1,1.180145874E0,9.796977081E0,9.876973717E0
7.848128958E0,4.288581848E-1,1.124611359E0,9.794132996E0,9.867811874E0
7.858153958E0,4.691244507E-1,1.076710968E0,9.790390778E0,9.860584964E0
7.868178958E0,5.510041809E-1,1.097068634E0,9.850865021E0,9.927069399E0
7.878203958E0,5.044509888E-1,1.137933655E0,9.894424438E0,9.972411883E0
7.888227958E0,4.602928162E-1,1.170266418E0,9.929451599E0,1.000876626E1
7.898252958E0,4.340972900E-1,1.154998169E0,9.897867279E0,9.974479330E0
7.908277958E0,4.140390015E-1,1.128503265E0,9.826765137E0,9.900013180E0
7.918301958E0,4.646337891E-1,1.154249725E0,9.763297119E0,9.842263338E0
7.928326958E0,5.486091614E-1,1.215921478E0,9.711953888E0,9.803136507E0
7.938351958E0,5.086422729E-1,1.241667938E0,9.716743927E0,9.808953500E0
7.948375958E0,4.168830872E-1,1.209784241E0,9.714049530E0,9.797965487E0
7.958400958E0,4.170327759E-1,1.164578247E0,9.758357391E0,9.836447418E0
7.968425958E0,4.833448792E-1,1.140178986E0,9.815538483E0,9.893352622E0
7.978449958E0,4.924758911E-1,1.139131165E0,9.783804474E0,9.862199668E0
7.988474958E0,4.758604431E-1,1.176104279E0,9.730664978E0,9.813027329E0
7.998499958E0,4.790039062E-1,1.161584473E0,9.755213928E0,9.835797986E0
8.008524958E0,4.709207153E-1,1.122216339E0,9.845326538E0,9.920261613E0
8.018548958E0,3.849993896E-1,1.115480347E0,9.885293427E0,9.955478244E0
8.028573958E0,3.933819580E-1,1.108295288E0,9.870174866E0,9.939990930E0
8.038598958E0,4.402345276E-1,1.121617584E0,9.810449066E0,9.884166294E0
8.048622958E0,4.584965515E-1,1.135987701E0,9.697733459E0,9.774800325E0
8.058647958E0,4.430786133E-1,1.172362061E0,9.642947388E0,9.724051922E0
8.068672958E0,4.754113770E-1,1.147813110E0,9.706864471E0,9.786046637E0
8.078696958E0,4.635859680E-1,1.104852448E0,9.821076965E0,9.893895271E0
8.088721958E0,4.231700134E-1,1.099164276E0,9.966724091E0,1.003607613E1
8.098746958E0,3.680845642E-1,1.054706726E0,9.994566193E0,1.005680098E1
8.108770958E0,3.257226562E-1,1.044078827E0,9.895472260E0,9.955730364E0
8.118795958E0,4.146377563E-1,1.050216064E0,9.865833893E0,9.930234471E0
8.128820958E0,3.826043701E-1,1.080153809E0,9.821825409E0,9.888446426E0
8.138845958E0,3.854484558E-1,1.097667389E0,9.837542725E0,9.906093633E0
8.148869958E0,4.248165894E-1,1.132395172E0,9.857151947E0,9.931074084E0
8.158894958E0,3.695814514E-1,1.131347351E0,9.830806732E0,9.902590483E0
8.168919958E0,3.076103210E-1,1.086889801E0,9.789193268E0,9.854149298E0
8.178943958E0,3.379971313E-1,1.105151825E0,9.769584045E0,9.837701715E0
8.188968958E0,3.948788452E-1,1.156495056E0,9.759255524E0,9.835470426E0
8.198993958E0,3.664379883E-1,1.177750854E0,9.696835327E0,9.774967480E0
8.209017958E0,3.372486877E-1,1.149459686E0,9.625882874E0,9.700134811E0
8.219042958E0,3.951782227E-1,1.102906494E0,9.624385986E0,9.695430582E0
8.229067958E0,4.376898193E-1,1.077010345E0,9.674382019E0,9.743982303E0
8.239091958E0,3.956272888E-1,1.047970734E0,9.776619415E0,9.840581832E0
8.249116958E0,4.140390015E-1,1.100810852E0,9.902507629E0,9.972104601E0
8.259141958E0,4.444258118E-1,1.092428284E0,9.947264557E0,1.001693496E1
8.269166958E0,3.917353821E-1,1.069226532E0,9.925859070E0,9.990964931E0
8.279190958E0,3.736230469E-1,1.061742096E0,9.895023193E0,9.958833991E0
8.289215958E0,3.345542908E-1,1.026116180E0,9.861642609E0,9.920525991E0
8.299240958E0,3.439846802E-1,1.031954041E0,9.834698639E0,9.894672906E0
8.309264958E0,4.068539429E-1,1.094074860E0,9.827962646E0,9.897038936E0
8.319289958E0,4.370910645E-1,1.138382721E0,9.835297394E0,9.910602335E0
8.329314958E0,4.179309082E-1,1.130449219E0,9.819131012E0,9.892821413E0
8.339338958E0,4.116439819E-1,1.092877350E0,9.821975098E0,9.891159006E0
8.349363958E0,4.073030090E-1,1.072968750E0,9.834099884E0,9.900842298E0
8.359388958E0,3.954776001E-1,1.071920929E0,9.826765137E0,9.892963664E0
8.369412958E0,4.002676392E-1,1.070873108E0,9.787397003E0,9.853939491E0
8.379437958E0,4.568499756E-1,1.089135132E0,9.766141205E0,9.837298474E0
8.389462958E0,4.337979126E-1,1.110540619E0,9.739945679E0,9.812646071E0
8.399486958E0,3.707789612E-1,1.106049957E0,9.691147156E0,9.761104279E0
8.409511958E0,4.191284180E-1,1.105002136E0,9.644294586E0,9.716435376E0
8.419536958E0,4.569996643E-1,1.145118713E0,9.600136414E0,9.678985728E0
8.429561958E0,4.067042542E-1,1.118923187E0,9.673633575E0,9.746619106E0
8.439585958E0,3.839515686E-1,1.069226532E0,9.792037354E0,9.857720818E0
8.449610958E0,3.746708679E-1,1.051862640E0,9.876012726E0,9.938934582E0
8.459635958E0,4.011657715E-1,1.007854156E0,9.946815491E0,1.000579044E1
8.469659958E0,4.575984192E-1,1.020428009E0,1.001866608E1,1.008088982E1
8.479684958E0,4.631369019E-1,1.045725403E0,1.002210892E1,1.008715542E1
8.489709958E0,4.846920776E-1,1.052311707E0,9.992021484E0,1.005896514E1
8.499733958E0,4.990621948E-1,1.067430267E0,9.916129303E0,9.985894592E0
8.509758958E0,4.731660461E-1,1.082848206E0,9.832153931E0,9.902913574E0
8.519783958E0,4.282594299E-1,1.080602875E0,9.778265991E0,9.847110973E0
8.529807958E0,4.385879517E-1,1.101858673E0,9.725425873E0,9.797467037E0
8.539832958E0,4.525090027E-1,1.115031281E0,9.673184509E0,9.747746288E0
8.549857958E0,4.882846069E-1,1.124461670E0,9.707014160E0,9.784117733E0
8.559881958E0,5.408253479E-1,1.127006378E0,9.775721283E0,9.855321508E0
8.569906958E0,4.876858521E-1,1.125359802E0,9.776170349E0,9.852805634E0
8.579931958E0,4.607418823E-1,1.096918945E0,9.718390503E0,9.790946237E0
8.589956958E0,4.740641785E-1,1.115031281E0,9.738299103E0,9.813383770E0
8.599980958E0,4.752616882E-1,1.125210114E0,9.783804474E0,9.859756663E0
8.610005958E0,4.360432434E-1,1.075064392E0,9.789792023E0,9.858292195E0
8.620030958E0,5.013075256E-1,1.123264160E0,9.846074982E0,9.922611761E0
8.630054958E0,5.337899780E-1,1.132993927E0,9.859996033E0,9.939221737E0
8.640079958E0,5.218148804E-1,1.149759064E0,9.879605255E0,9.959961680E0
8.650104958E0,4.852908325E-1,1.143172760E0,9.886940002E0,9.964634151E0
8.660128958E0,4.561015320E-1,1.112336884E0,9.846823425E0,9.919942213E0
8.670153958E0,4.418811035E-1,1.094224548E0,9.812993774E0,9.883695315E0
8.680178958E0,4.293072510E-1,1.132395172E0,9.826765137E0,9.901107847E0
8.690202958E0,4.842430115E-1,1.111289062E0,9.800419922E0,9.875104319E0
8.700227958E0,4.438270569E-1,1.161285095E0,9.803264008E0,9.881778723E0
8.710252958E0,3.920347595E-1,1.150357819E0,9.781110077E0,9.856324300E0
8.720276958E0,4.120930481E-1,1.118923187E0,9.772278442E0,9.844756764E0
8.730301958E0,4.486170959E-1,1.124910736E0,9.763297119E0,9.838122387E0
8.740326958E0,4.724176025E-1,1.123862915E0,9.771979065E0,9.847731774E0
8.750350958E0,5.089416504E-1,1.164278870E0,9.762548676E0,9.844893272E0
8.760375958E0,5.016069031E-1,1.152004395E0,9.771380310E0,9.851832153E0
8.770400833E0,5.135820007E-1,1.136885834E0,9.814191284E0,9.893160589E0
8.780425833E0,5.135820007E-1,1.150657196E0,9.854906616E0,9.935137788E0
8.790449833E0,4.406835938E-1,1.119521942E0,9.865085449E0,9.938181037E0
8.800474833E0,3.909869385E-1,1.103654938E0,9.846074982E0,9.915448429E0
8.810499833E0,3.686833191E-1,1.109343109E0,9.816436615E0,9.885797759E0
8.820523833E0,3.980223083E-1,1.126108246E0,9.783505096E0,9.856140904E0
8.830548833E0,4.340972900E-1,1.166524200E0,9.726922760E0,9.806235034E0
8.840573833E0,4.567002869E-1,1.175804901E0,9.707463226E0,9.789072204E0
8.850597833E0,4.966671753E-1,1.208886108E0,9.737550659E0,9.824865228E0
8.860622833E0,4.611909485E-1,1.200802917E0,9.746981049E0,9.831493493E0
8.870647833E0,3.923341370E-1,1.168919220E0,9.746831360E0,9.824511172E0
8.880671833E0,4.122427368E-1,1.144669647E0,9.744286652E0,9.819945775E0
8.890696833E0,4.402345276E-1,1.144519958E0,9.787846069E0,9.864363287E0
8.900721833E0,4.152365112E-1,1.145118713E0,9.783654785E0,9.859189580E0
8.910745833E0,4.231700134E-1,1.189127197E0,9.832453308E0,9.913134439E0
8.920770833E0,4.444258118E-1,1.158890076E0,9.848470001E0,9.926374055E0
8.930795833E0,4.369413757E-1,1.150208130E0,9.901908875E0,9.978060727E0
8.940819833E0,3.881428528E-1,1.148860931E0,9.887089691E0,9.961178589E0
8.950844833E0,4.007167053E-1,1.178499298E0,9.856104126E0,9.934395956E0
8.960869833E0,4.285588074E-1,1.192420349E0,9.808203735E0,9.889711293E0
8.970894833E0,4.472698975E-1,1.166673889E0,9.754764862E0,9.834460628E0
8.980918833E0,3.814068604E-1,1.206790466E0,9.708660736E0,9.790807306E0
8.990943833E0,3.430865479E-1,1.192270660E0,9.663604431E0,9.742918880E0
9.000968833E0,3.745211792E-1,1.162482605E0,9.671238556E0,9.748050427E0
9.010992833E0,3.411405945E-1,1.133592682E0,9.622889099E0,9.695432115E0
9.021017833E0,3.902384949E-1,1.137035522E0,9.608668671E0,9.683576276E0
9.031042833E0,4.412823486E-1,1.202299805E0,9.654024353E0,9.738605708E0
9.041066833E0,3.890409851E-1,1.194366302E0,9.687554626E0,9.768652844E0
9.051091833E0,3.905378723E-1,1.157991943E0,9.772278442E0,9.848395358E0
9.061116833E0,3.481759644E-1,1.116528168E0,9.882449341E0,9.951415308E0
9.071140833E0,3.255729675E-1,1.095571747E0,9.946067047E0,1.001151961E1
9.081165833E0,3.683839417E-1,1.080902252E0,9.951755219E0,1.001705986E1
9.091190833E0,3.899391174E-1,1.112935638E0,9.902208252E0,9.972181633E0
9.101214833E0,3.784130859E-1,1.137035522E0,9.855355682E0,9.927944494E0
9.111239833E0,3.659889221E-1,1.152752838E0,9.839788055E0,9.913839618E0
9.121264833E0,3.363505554E-1,1.139580231E0,9.859546967E0,9.930883203E0
9.131288833E0,3.456312561E-1,1.141077118E0,9.845176849E0,9.917107701E0
9.141313833E0,3.448828125E-1,1.101409607E0,9.796228638E0,9.863982096E0
9.151338833E0,3.263214111E-1,1.086889801E0,9.768685913E0,9.834380487E0
9.161363833E0,3.354524231E-1,1.134041748E0,9.764045563E0,9.835403640E0
9.171387833E0,3.712280273E-1,1.141975250E0,9.800868988E0,9.874155693E0
9.181412833E0,3.920347595E-1,1.173858948E0,9.837991791E0,9.915529162E0
9.191437833E0,3.751199341E-1,1.160386963E0,9.831704865E0,9.907049682E0
9.201461833E0,3.397933960E-1,1.119521942E0,9.759704590E0,9.829578964E0
9.211486833E0,3.379971313E-1,1.128054199E0,9.689201202E0,9.760500411E0
9.221511833E0,3.397933960E-1,1.137634277E0,9.654473419E0,9.727205575E0
9.231535833E0,3.632945251E-1,1.125808868E0,9.683063965E0,9.755057984E0
9.241560833E0,3.778143311E-1,1.149459686E0,9.733359375E0,9.808276401E0
9.251585833E0,3.475772095E-1,1.166374512E0,9.777816925E0,9.853270687E0
9.261609833E0,3.248245239E-1,1.120869141E0,9.799222412E0,9.868465863E0
9.271634833E0,3.861968994E-1,1.126707001E0,9.833800507E0,9.905667525E0
9.281659833E0,4.055067444E-1,1.123713226E0,9.840835876E0,9.913083167E0
9.291683833E0,4.201762390E-1,1.100960541E0,9.865534515E0,9.935664722E0
9.301708833E0,3.911366272E-1,1.089135132E0,9.892777863E0,9.960233784E0
9.311733833E0,3.626957703E-1,1.091081085E0,9.895172882E0,9.961749471E0
9.321757833E0,3.659889221E-1,1.114731903E0,9.873468018E0,9.942934466E0
9.331782833E0,3.662882996E-1,1.118474121E0,9.807155914E0,9.877522898E0
9.341807833E0,3.992198181E-1,1.153650970E0,9.814790039E0,9.890419128E0
9.351831833E0,4.290078735E-1,1.145418091E0,9.798623657E0,9.874667383E0
9.361856833E0,4.189787292E-1,1.152902527E0,9.804311829E0,9.880751887E0
9.371881833E0,4.447251892E-1,1.132844238E0,9.765692139E0,9.841232621E0
9.381906833E0,4.740641785E-1,1.128503265E0,9.816735992E0,9.892753005E0
9.391930833E0,4.644841003E-1,1.152453461E0,9.908944244E0,9.986544472E0
9.401955833E0,4.076023865E-1,1.106648712E0,9.939780121E0,1.000949749E1
9.411980833E0,3.694317627E-1,1.073717194E0,9.868677979E0,9.933788476E0
9.422004833E0,3.923341370E-1,1.075812836E0,9.759405212E0,9.826356875E0
9.432029833E0,4.276606750E-1,1.089733887E0,9.642947388E0,9.713745309E0
9.442054833E0,4.936734009E-1,1.130299530E0,9.590855713E0,9.669839904E0
9.452078833E0,5.164260864E-1,1.158291321E0,9.677525482E0,9.760268139E0
9.462103833E0,4.619393921E-1,1.146465912E0,9.769584045E0,9.847463862E0
9.472128833E0,3.975732422E-1,1.083746338E0,9.866732025E0,9.934030978E0
9.482152833E0,4.412823486E-1,1.066232758E0,9.958940277E0,1.002557100E1
9.492177833E0,4.299060059E-1,1.071471863E0,9.965676270E0,1.003232648E1
9.502202833E0,4.285588074E-1,1.077010345E0,9.876162415E0,9.943952834E0
9.512226833E0,4.965174866E-1,1.103804626E0,9.823471985E0,9.897753084E0
9.522251833E0,4.751119995E-1,1.109642487E0,9.785900116E0,9.860064855E0
9.532276833E0,4.815486145E-1,1.095721436E0,9.784403229E0,9.857334380E0
9.542300833E0,4.668791199E-1,1.112486572E0,9.821376343E0,9.895202664E0
9.552325833E0,3.918850708E-1,1.082848206E0,9.761800232E0,9.829490216E0
9.562350833E0,4.731660461E-1,1.091679840E0,9.761051788E0,9.833299700E0
9.572374833E0,5.104385376E-1,1.128952332E0,9.743687897E0,9.822145117E0
9.582399833E0,4.572990417E-1,1.123862915E0,9.698930969E0,9.774530792E0
9.592424833E0,4.845423889E-1,1.116977234E0,9.691596222E0,9.767776451E0
9.602448833E0,5.128335571E-1,1.087488556E0,9.706864471E0,9.781045316E0
9.612473833E0,5.298980713E-1,1.063238983E0,9.780661011E0,9.852542764E0
9.622498833E0,5.225633240E-1,1.093176727E0,9.903405762E0,9.977251799E0
9.632523833E0,4.742138672E-1,1.103654938E0,9.912836151E0,9.985351950E0
9.642547833E0,4.508624268E-1,1.069376221E0,9.902807007E0,9.970578170E0
9.652572833E0,4.513114929E-1,1.057999878E0,9.872569885E0,9.939350177E0
9.662597833E0,4.631369019E-1,1.069226532E0,9.851164398E0,9.919837759E0
9.672621833E0,4.260140991E-1,1.067280579E0,9.818532257E0,9.885552667E0
9.682646833E0,4.529580688E-1,1.081051941E0,9.829758911E0,9.899394151E0
9.692671833E0,4.361929321E-1,1.101708984E0,9.765542450E0,9.837166579E0
9.702695833E0,3.861968994E-1,1.098266144E0,9.688752136E0,9.758445292E0
9.712720833E0,4.281097412E-1,1.079105988E0,9.728120270E0,9.797146098E0
9.722745833E0,4.781057739E-1,1.106199646E0,9.771080933E0,9.845114798E0
9.732769833E0,4.564009094E-1,1.113833771E0,9.752070465E0,9.826077845E0
9.742794833E0,4.079017639E-1,1.061742096E0,9.718240814E0,9.784573810E0
9.752819833E0,4.255650330E-1,1.041085052E0,9.742789764E0,9.807492854E0
9.762843833E0,4.074526978E-1,1.051563263E0,9.780211945E0,9.845016439E0
9.772865708E0,4.317022705E-1,1.090632019E0,9.848769379E0,9.918372010E0
9.782890708E0,4.522096252E-1,1.076860657E0,9.879156189E0,9.947957048E0
9.792914708E0,4.132905579E-1,1.056353302E0,9.875563660E0,9.940495409E0
9.802939708E0,4.331991577E-1,1.052012329E0,9.847272491E0,9.912777964E0
9.812964708E0,4.474195862E-1,1.059796143E0,9.804611206E0,9.871866746E0
9.822988708E0,4.046086121E-1,1.065634003E0,9.773326263E0,9.839572664E0
9.833013708E0,4.168830872E-1,1.055904236E0,9.802365875E0,9.867882347E0
9.843038708E0,4.471202087E-1,1.043330383E0,9.853110352E0,9.918277994E0
9.853062708E0,3.739224243E-1,1.052162018E0,9.836794281E0,9.899968920E0
9.863087708E0,3.885919189E-1,1.063688049E0,9.873018951E0,9.937753225E0
9.873112708E0,4.093986511E-1,1.078357544E0,9.891879730E0,9.958902894E0
9.883136708E0,4.311035156E-1,1.047821045E0,9.905202026E0,9.969794700E0
9.893161708E0,4.296066284E-1,1.027014313E0,9.929900665E0,9.992109261E0
9.903186708E0,3.508703613E-1,1.021176453E0,9.860145721E0,9.919091945E0
9.913210708E0,3.635939026E-1,1.025068359E0,9.799521790E0,9.859695379E0
9.923235708E0,4.227209473E-1,1.027313690E0,9.814041595E0,9.876713970E0
9.933260708E0,4.224215698E-1,1.075962524E0,9.752220154E0,9.820485388E0
9.943285708E0,4.194277954E-1,1.115031281E0,9.675130463E0,9.748197982E0
9.953309708E0,3.894900513E-1,1.060843964E0,9.597142639E0,9.663448621E0
9.963334708E0,3.760180664E-1,1.052311707E0,9.598190460E0,9.663022800E0
9.973359708E0,4.037104797E-1,1.112935638E0,9.749675446E0,9.821292134E0
9.983383708E0,3.806584167E-1,1.115480347E0,9.854008484E0,9.924247097E0
9.993408708E0,4.110452271E-1,1.083596649E0,9.883197784E0,9.950916456E0
1.000343371E1,4.366419983E-1,1.025517426E0,9.899364166E0,9.961915133E0
1.001345771E1,3.945794678E-1,1.082848206E0,9.946067047E0,1.001261719E1
1.002348271E1,3.606001282E-1,1.064586182E0,9.933792572E0,9.997180155E0
1.003350771E1,3.836521912E-1,1.032103729E0,9.882449341E0,9.943602571E0
1.004353171E1,3.815565491E-1,1.081051941E0,9.833351440E0,9.899952487E0
1.005355671E1,3.984713745E-1,1.129850464E0,9.809401245E0,9.882291956E0
1.006358171E1,3.921844482E-1,1.155297546E0,9.761500854E0,9.837449873E0
1.007360571E1,3.276686096E-1,1.159638519E0,9.657317505E0,9.732209903E0
1.008363071E1,3.369493103E-1,1.137185211E0,9.610764313E0,9.683672636E0
1.009365571E1,3.649411011E-1,1.107397156E0,9.623487854E0,9.693865532E0
1.010367971E1,3.812571716E-1,1.129850464E0,9.699380035E0,9.772404626E0
1.011370471E1,3.784130859E-1,1.138382721E0,9.764494629E0,9.837909689E0
1.012372971E1,3.287164307E-1,1.116378479E0,9.734706573E0,9.804023025E0
1.013375371E1,4.053570557E-1,1.066981201E0,9.776020660E0,9.842425676E0
1.014377871E1,4.466711426E-1,1.076561279E0,9.812095642E0,9.881078898E0
1.015380371E1,4.016148376E-1,1.107995911E0,9.860744476E0,9.930922970E0
1.016382771E1,3.809577942E-1,1.081650696E0,9.917326813E0,9.983409647E0
1.017385271E1,3.995191956E-1,1.048120422E0,9.961934052E0,1.002488414E1
1.018387771E1,4.095483398E-1,1.052611084E0,9.993668060E0,1.005729194E1
1.019390171E1,3.977229309E-1,1.057550812E0,9.968670044E0,1.003249618E1
1.020392671E1,3.945794678E-1,1.066532135E0,9.904004517E0,9.969076648E0
1.021395171E1,4.334985352E-1,1.084794159E0,9.834848328E0,9.903986115E0
1.022397571E1,4.120930481E-1,1.108744354E0,9.736353149E0,9.807941036E0
1.023400071E1,3.754193115E-1,1.127006378E0,9.662556610E0,9.735300883E0
1.024402571E1,3.725752258E-1,1.113833771E0,9.636959839E0,9.708266215E0
1.025404971E1,3.936813354E-1,1.139430542E0,9.649084625E0,9.724100013E0
1.026407471E1,4.406835938E-1,1.124162292E0,9.673483887E0,9.748550323E0
1.027409971E1,4.493655396E-1,1.123413849E0,9.736053772E0,9.810949552E0
1.028412371E1,4.294569397E-1,1.105600891E0,9.822124786E0,9.893478757E0
1.029414871E1,3.882925415E-1,1.079105988E0,9.836943970E0,9.903570442E0
1.030417371E1,4.372407532E-1,1.096619568E0,9.866282959E0,9.936664097E0
1.031419771E1,4.796026611E-1,1.126257935E0,9.887089691E0,9.962580901E0
1.032422271E1,3.894900513E-1,1.125210114E0,9.871222687E0,9.942778165E0
1.033424771E1,4.138893127E-1,1.100960541E0,9.889784088E0,9.959480297E0
1.034427271E1,4.486170959E-1,1.080902252E0,9.927056580E0,9.995802084E0
1.035429671E1,4.019142151E-1,1.072519684E0,9.916877747E0,9.982800096E0
1.036432171E1,3.796105957E-1,1.079105988E0,9.855655060E0,9.921819924E0
1.037434671E1,3.884422302E-1,1.116228790E0,9.742191010E0,9.813620114E0
1.038437071E1,4.191284180E-1,1.130149841E0,9.652677155E0,9.727645324E0
1.039439571E1,4.179309082E-1,1.151854706E0,9.629325714E0,9.706974256E0
1.040442071E1,4.067042542E-1,1.164129181E0,9.680070190E0,9.758297187E0
1.041444471E1,4.038601685E-1,1.146465912E0,9.758207703E0,9.833621138E0
1.042446971E1,3.968247986E-1,1.092428284E0,9.781708832E0,9.850517608E0
1.043449471E1,3.564088440E-1,1.072819061E0,9.799970856E0,9.864958022E0
1.044451871E1,3.872447205E-1,1.042731628E0,9.831555176E0,9.894277381E0
1.045454371E1,4.399351501E-1,1.084794159E0,9.893077240E0,9.962093082E0
1.046456871E1,4.445755005E-1,1.124761047E0,9.908046112E0,9.981588679E0
1.047459271E1,4.471202087E-1,1.119072876E0,9.918823700E0,9.991761815E0
1.048461771E1,4.053570557E-1,1.090182953E0,9.904453583E0,9.972512922E0
1.049464271E1,4.328997803E-1,1.062041473E0,9.912985840E0,9.979109308E0
1.050466671E1,4.861889648E-1,1.098864899E0,9.883497162E0,9.956274400E0
1.051469171E1,4.472698975E-1,1.137334900E0,9.777068481E0,9.853154273E0
1.052471671E1,3.806584167E-1,1.127455444E0,9.741442566E0,9.813855505E0
1.053474071E1,3.899391174E-1,1.088237000E0,9.756411438E0,9.824656555E0
1.054476571E1,4.236190796E-1,1.097667389E0,9.797426147E0,9.867820729E0
1.055479071E1,3.719764709E-1,1.133143616E0,9.810598755E0,9.882824944E0
1.056481471E1,3.347039795E-1,1.101409607E0,9.751172333E0,9.818884445E0
1.057483971E1,3.724255371E-1,1.095422058E0,9.734107819E0,9.802627469E0
1.058486471E1,3.953279114E-1,1.089883575E0,9.785451050E0,9.853891750E0
1.059488871E1,3.586541748E-1,1.100062408E0,9.826914825E0,9.894797881E0
1.060491371E1,3.432362366E-1,1.072968750E0,9.837842102E0,9.902131603E0
1.061493871E1,3.872447205E-1,1.070274353E0,9.842332764E0,9.907924096E0
1.062496271E1,3.975732422E-1,1.119521942E0,9.813742218E0,9.885389734E0
1.063498771E1,3.580554199E-1,1.101409607E0,9.782906342E0,9.851221411E0
1.064501271E1,3.829037476E-1,1.086440735E0,9.798174591E0,9.865657305E0
1.065503671E1,4.457730103E-1,1.102158051E0,9.880204010E0,9.951477138E0
1.066506171E1,3.773652649E-1,1.115330658E0,9.902956696E0,9.972708676E0
1.067508671E1,3.104544067E-1,1.109043732E0,9.874815216E0,9.941747104E0
1.068511071E1,3.237767029E-1,1.062191162E0,9.854756927E0,9.917122341E0
1.069513571E1,3.793112183E-1,1.120120697E0,9.776020660E0,9.847290355E0
1.070516071E1,3.966751099E-1,1.145867157E0,9.754615173E0,9.829693783E0
1.071518471E1,3.808081055E-1,1.153351593E0,9.750274200E0,9.825633908E0
1.072520971E1,3.740721130E-1,1.115630035E0,9.760003967E0,9.830678398E0
1.073523471E1,3.740721130E-1,1.107995911E0,9.825268250E0,9.894618793E0
1.074525871E1,3.300636292E-1,1.108594666E0,9.852960663E0,9.920622861E0
1.075528371E1,2.896476746E-1,1.097517700E0,9.796827393E0,9.862366239E0
1.076530871E1,2.863545227E-1,1.090482330E0,9.730365601E0,9.795466571E0
1.077533183E1,3.623963928E-1,1.126856689E0,9.740095367E0,9.811757993E0
1.078535683E1,3.603007507E-1,1.149908752E0,9.753567352E0,9.827725213E0
1.079538183E1,3.360511780E-1,1.117276611E0,9.757459259E0,9.826965382E0
1.080540583E1,3.706292725E-1,1.138682098E0,9.746981049E0,9.820264892E0
1.081543083E1,3.833528137E-1,1.117725677E0,9.751920776E0,9.823249406E0
1.082545583E1,3.580554199E-1,1.105900269E0,9.796528015E0,9.865251149E0
1.083547983E1,3.716770935E-1,1.120569763E0,9.832004242E0,9.902632371E0
1.084550483E1,3.471281433E-1,1.095721436E0,9.850266266E0,9.917098816E0
1.085552983E1,3.182382202E-1,1.086440735E0,9.837393036E0,9.902319465E0
1.086555383E1,3.457809448E-1,1.107696533E0,9.851014709E0,9.919125308E0
1.087557883E1,3.995191956E-1,1.096619568E0,9.830507355E0,9.899548723E0
1.088560383E1,4.098477173E-1,1.137185211E0,9.833052063E0,9.907072132E0
1.089562783E1,4.227209473E-1,1.149908752E0,9.843230896E0,9.919182306E0
1.090565283E1,3.854484558E-1,1.116528168E0,9.836943970E0,9.907606791E0
1.091567783E1,3.531156921E-1,1.090632019E0,9.824519806E0,9.891175780E0
1.092570283E1,3.707789612E-1,1.113534393E0,9.839039612E0,9.908790863E0
1.093572683E1,3.573069763E-1,1.133742371E0,9.801916809E0,9.873733497E0
1.094575183E1,3.671864319E-1,1.123862915E0,9.761351166E0,9.832693950E0
1.095577683E1,4.002676392E-1,1.158590698E0,9.725575562E0,9.802518380E0
1.096580083E1,3.719764709E-1,1.159189453E0,9.680070190E0,9.756323364E0
1.097582583E1,3.760180664E-1,1.130898285E0,9.704319763E0,9.777225710E0
1.098585083E1,4.507127380E-1,1.156794434E0,9.793085175E0,9.871465574E0
1.099587483E1,4.170327759E-1,1.153800659E0,9.865534515E0,9.941526219E0
1.100589983E1,3.662882996E-1,1.117426300E0,9.876162415E0,9.945923421E0
1.101592483E1,4.204756165E-1,1.119072876E0,9.898016968E0,9.969948031E0
1.102594883E1,4.188290405E-1,1.141077118E0,9.842632141E0,9.917402998E0
1.103597383E1,3.876937866E-1,1.169517975E0,9.810449066E0,9.887516859E0
1.104599883E1,3.579057312E-1,1.147513733E0,9.783804474E0,9.857368526E0
1.105602283E1,3.944297791E-1,1.138382721E0,9.798324280E0,9.872114706E0
1.106604783E1,3.948788452E-1,1.159788208E0,9.832004242E0,9.908044479E0
1.107607283E1,4.068539429E-1,1.194216614E0,9.821226654E0,9.901927915E0
1.108609683E1,4.017645264E-1,1.189725952E0,9.778715057E0,9.859012666E0
1.109612183E1,3.950285339E-1,1.154698792E0,9.729766846E0,9.806005288E0
1.110614683E1,3.641926575E-1,1.138981476E0,9.742340698E0,9.815452989E0
1.111617083E1,3.567082214E-1,1.132544861E0,9.811496887E0,9.883085034E0
1.112619583E1,3.528163147E-1,1.155596924E0,9.820178833E0,9.894230436E0
1.113622083E1,3.703298950E-1,1.169667664E0,9.780211945E0,9.856866254E0
1.114624483E1,4.004173279E-1,1.177301788E0,9.696835327E0,9.776246156E0
1.115626983E1,4.414320374E-1,1.185834045E0,9.720037079E0,9.802050063E0
1.116629483E1,3.882925415E-1,1.180894318E0,9.776020660E0,9.854738071E0
1.117631883E1,3.591032410E-1,1.149459686E0,9.794132996E0,9.867890040E0
1.118634383E1,3.835025024E-1,1.103205872E0,9.815388794E0,9.884634264E0
1.119636883E1,4.007167053E-1,1.130000153E0,9.806557159E0,9.879576790E0
1.120639283E1,4.032614136E-1,1.167422333E0,9.838141479E0,9.915367993E0
1.121641783E1,3.564088440E-1,1.155297546E0,9.798473969E0,9.872782374E0
1.122644283E1,3.716770935E-1,1.115630035E0,9.814490662E0,9.884685184E0
1.123646683E1,4.001179504E-1,1.150507507E0,9.840386810E0,9.915491641E0
1.124649183E1,3.835025024E-1,1.165326691E0,9.831106110E0,9.907356247E0
1.125651683E1,3.679348755E-1,1.171014862E0,9.819430389E0,9.895850901E0
1.126654083E1,4.086502075E-1,1.184935913E0,9.810748444E0,9.890493068E0
1.127656583E1,4.580474854E-1,1.179547119E0,9.806557159E0,9.887856301E0
1.128659083E1,3.722758484E-1,1.173858948E0,9.814340973E0,9.891300363E0
1.129661483E1,3.192860413E-1,1.165177002E0,9.764344940E0,9.838801407E0
1.130663983E1,3.701802063E-1,1.174008636E0,9.729467468E0,9.807031502E0
1.131666483E1,3.845503235E-1,1.194515991E0,9.767488403E0,9.847770159E0
1.132668883E1,3.158432007E-1,1.185384979E0,9.777517548E0,9.854173931E0
1.133671383E1,3.153941345E-1,1.162781982E0,9.776769104E0,9.850723299E0
1.134673883E1,3.450325012E-1,1.182540894E0,9.765841827E0,9.843226960E0
1.135676283E1,3.695814514E-1,1.136137390E0,9.741442566E0,9.814433345E0
1.136678783E1,3.793112183E-1,1.150956573E0,9.782307587E0,9.857084749E0
1.137681283E1,3.700305176E-1,1.205143890E0,9.804012451E0,9.884733407E0
1.138683683E1,3.872447205E-1,1.185085602E0,9.839937744E0,9.918606816E0
1.139686183E1,3.553610229E-1,1.162931671E0,9.861642609E0,9.936331640E0
1.140688683E1,3.812571716E-1,1.166823578E0,9.829908600E0,9.906257486E0
1.141691083E1,4.290078735E-1,1.159937897E0,9.833800507E0,9.911263092E0
1.142693583E1,4.453239441E-1,1.175056458E0,9.900262299E0,9.979692614E0
1.143696083E1,4.328997803E-1,1.171014862E0,9.940079498E0,1.001817640E1
1.144698483E1,3.896397400E-1,1.177900543E0,9.899663544E0,9.977104144E0
1.145700983E1,3.878434753E-1,1.213077393E0,9.859696655E0,9.941609400E0
1.146703483E1,3.614982605E-1,1.195713501E0,9.788893890E0,9.868275197E0
1.147705883E1,3.800596619E-1,1.191222839E0,9.715097351E0,9.795232194E0
1.148708383E1,3.691323853E-1,1.207538910E0,9.654623108E0,9.736845295E0
1.149710883E1,3.924838257E-1,1.248553619E0,9.605824585E0,9.694575579E0
1.150713283E1,4.037104797E-1,1.272503815E0,9.642498322E0,9.734475948E0
1.151715783E1,3.835025024E-1,1.235979767E0,9.670939178E0,9.757140193E0
1.152718283E1,3.281176758E-1,1.191971283E0,9.664652252E0,9.743405970E0
1.153720683E1,3.882925415E-1,1.193019104E0,9.769284668E0,9.849517176E0
1.154723183E1,4.571493530E-1,1.218166809E0,9.904154205E0,9.989253547E0
1.155725683E1,4.445755005E-1,1.207688599E0,9.982441406E0,1.006505318E1
1.156728083E1,4.626878357E-1,1.212179260E0,9.996212769E0,1.008006589E1
1.157730583E1,5.083428955E-1,1.235830078E0,9.947414246E0,1.003676933E1
1.158733083E1,5.174739075E-1,1.222657471E0,9.886640625E0,9.975386378E0
1.159735483E1,4.896318054E-1,1.215921478E0,9.825717316E0,9.912765765E0
1.160737983E1,4.465214539E-1,1.198707275E0,9.741442566E0,9.825069150E0
1.161740483E1,4.450245667E-1,1.215472412E0,9.713151398E0,9.799016794E0
1.162742883E1,4.363426208E-1,1.268013153E0,9.684560852E0,9.776961242E0
1.163745383E1,4.954696655E-1,1.307381287E0,9.715396729E0,9.815481120E0
1.164747883E1,5.237608337E-1,1.348994751E0,9.703122253E0,9.810437998E0
1.165750283E1,5.089416504E-1,1.327589264E0,9.717342682E0,9.820807688E0
1.166752783E1,4.719685364E-1,1.298699341E0,9.755213928E0,9.852592200E0
1.167755283E1,4.505630493E-1,1.293460236E0,9.793534241E0,9.888850255E0
1.168757683E1,4.547543335E-1,1.259331207E0,9.834998016E0,9.925719247E0
1.169760183E1,4.320016479E-1,1.247805176E0,9.884095917E0,9.971910312E0
1.170762683E1,3.942800903E-1,1.261277161E0,9.884245605E0,9.972190735E0
1.171765083E1,3.782633972E-1,1.279688873E0,9.902657318E0,9.992162367E0
1.172767583E1,3.221301270E-1,1.314716034E0,9.901609497E0,9.993703853E0
1.173770083E1,2.974314880E-1,1.337319031E0,9.914333038E0,1.000854072E1
1.174772483E1,3.924838257E-1,1.376088409E0,9.898016968E0,1.000092010E1
1.175774983E1,5.047503662E-1,1.403780823E0,9.865384827E0,9.977534330E0
1.176777483E1,5.390290833E-1,1.427431641E0,9.818981323E0,9.936825835E0
1.177779958E1,5.556445312E-1,1.470991058E0,9.747879181E0,9.873890017E0
1.178782458E1,5.029541016E-1,1.432970123E0,9.665400696E0,9.783983688E0
1.179784958E1,4.911286926E-1,1.393452301E0,9.658065948E0,9.770422436E0
1.180787358E1,5.357359314E-1,1.426533508E0,9.710906067E0,9.829735880E0
1.181789858E1,5.092410278E-1,1.442849579E0,9.720186768E0,9.839876632E0
1.182792358E1,5.144801331E-1,1.441951447E0,9.759105835E0,9.878464480E0
1.183794758E1,5.303471375E-1,1.472038879E0,9.774823151E0,9.899259274E0
1.184797258E1,5.348377991E-1,1.466949463E0,9.720635834E0,9.845240130E0
1.185799758E1,5.213658142E-1,1.456171875E0,9.660011902E0,9.783051098E0
1.186802158E1,5.239105225E-1,1.426982574E0,9.624086609E0,9.743397999E0
1.187804658E1,4.971162415E-1,1.417701874E0,9.609117737E0,9.725849415E0
1.188807158E1,5.188211060E-1,1.463506622E0,9.645192719E0,9.769379179E0
1.189809558E1,5.766009521E-1,1.537303162E0,9.664801941E0,9.803273240E0
1.190812058E1,5.679190063E-1,1.558558960E0,9.638456726E0,9.780157774E0
1.191814558E1,5.851332092E-1,1.545835419E0,9.598340149E0,9.739616092E0
1.192816958E1,6.107299805E-1,1.469045105E0,9.552984467E0,9.684554551E0
1.193819458E1,6.792874146E-1,1.425485687E0,9.564510498E0,9.693982768E0
1.194821958E1,6.948550415E-1,1.378184052E0,9.656868439E0,9.779433667E0
1.195824358E1,6.354286194E-1,1.295406189E0,9.789043579E0,9.894807776E0
1.196826858E1,5.963598633E-1,1.207838287E0,9.892777863E0,9.984065918E0
1.197829358E1,6.234535217E-1,1.166973267E0,9.958341522E0,1.004584923E1
1.198831758E1,6.539900208E-1,1.191522217E0,9.958790588E0,1.005111626E1
1.199834258E1,6.727011108E-1,1.209484863E0,9.914931793E0,1.001105653E1
1.200836758E1,6.629713440E-1,1.230141907E0,9.811796265E0,9.910808547E0
1.201839158E1,5.926176453E-1,1.221310272E0,9.768087158E0,9.861963353E0
1.202841658E1,5.281018066E-1,1.248403931E0,9.697733459E0,9.792008892E0
1.203844158E1,5.195695496E-1,1.296603699E0,9.523795166E0,9.625684809E0
1.204846558E1,5.016069031E-1,1.361568604E0,9.336833954E0,9.448912468E0
1.205849058E1,3.718267822E-1,1.416055298E0,9.200617218E0,9.316374024E0
1.206851558E1,2.050735474E-1,1.454974365E0,9.108109589E0,9.225869381E0
1.207853958E1,2.191442871E-1,1.445543976E0,9.066346436E0,9.183477516E0
1.208856458E1,1.639091492E-1,1.411564636E0,9.066945190E0,9.177629107E0
1.209858958E1,1.597178650E-1,1.477277985E0,9.170829163E0,9.290423433E0
1.210861358E1,1.538800049E-1,1.529968414E0,9.288334808E0,9.414756817E0
1.211863858E1,1.505868530E-1,1.581910400E0,9.426796875E0,9.559791642E0
1.212866358E1,2.080673218E-1,1.684147797E0,9.517059174E0,9.667164068E0
1.213868758E1,2.969824219E-1,1.737137604E0,9.502239990E0,9.664285304E0
1.214871258E1,3.213816833E-1,1.676962738E0,9.386380920E0,9.540421217E0
1.215873758E1,3.418890381E-1,1.603166199E0,9.417965240E0,9.559555390E0
1.216876158E1,3.082090759E-1,1.557810516E0,9.470356293E0,9.602573340E0
1.217878658E1,2.421963501E-1,1.423240356E0,9.593999176E0,9.702014862E0
1.218881158E1,2.357597351E-1,1.337169342E0,9.822873230E0,9.916271628E0
1.219883558E1,1.990859985E-1,1.332079926E0,1.006252487E1,1.015226472E1
1.220886058E1,1.980381775E-1,1.400487671E0,1.018826340E1,1.028597569E1
1.221888558E1,2.380050659E-1,1.449136505E0,1.021161484E1,1.031667197E1
1.222890958E1,2.017803955E-1,1.536854095E0,1.013048355E1,1.024838196E1
1.223893458E1,1.420545959E-1,1.539249115E0,1.003019211E1,1.014860685E1
1.224895958E1,1.887574768E-1,1.518143005E0,1.005399261E1,1.016971755E1
1.225898358E1,2.198927307E-1,1.614243164E0,1.024544449E1,1.037416342E1
1.226900858E1,1.404080200E-1,1.653162231E0,1.041579025E1,1.054710133E1
1.227903358E1,1.083746338E-1,1.610800323E0,1.055320450E1,1.067597995E1
1.228905758E1,1.728904724E-1,1.607058105E0,1.058703415E1,1.070970676E1
1.229908258E1,1.929487610E-1,1.567989349E0,1.058493851E1,1.070218403E1
1.230910758E1,1.481918335E-1,1.516795807E0,1.061787003E1,1.072668608E1
1.231913158E1,1.694476318E-1,1.492546234E0,1.058433975E1,1.069040012E1
1.232915658E1,2.636018372E-1,1.507964172E0,1.041219772E1,1.052412957E1
1.233918158E1,4.237687683E-1,1.547182617E0,1.017194733E1,1.029766315E1
1.234920558E1,4.860392761E-1,1.643282776E0,9.884544983E0,1.003199093E1
1.235923058E1,4.923262024E-1,1.668879547E0,9.623936920E0,9.779964513E0
1.236925558E1,5.164260864E-1,1.692380676E0,9.474846954E0,9.638649961E0
1.237927958E1,4.686753845E-1,1.715881805E0,9.407487030E0,9.574169374E0
1.238930458E1,4.522096252E-1,1.733844452E0,9.395362244E0,9.564702913E0
1.239932958E1,3.945794678E-1,1.739682312E0,9.377848663E0,9.546006131E0
1.240935358E1,2.862048340E-1,1.711391144E0,9.287137299E0,9.447840603E0
1.241937858E1,2.875520325E-1,1.690883789E0,9.227860565E0,9.385903514E0
1.242940358E1,3.442840576E-1,1.711241455E0,9.133556671E0,9.298856720E0
1.243942758E1,3.056643677E-1,1.707499237E0,9.095386047E0,9.259321341E0
1.244945258E1,2.751278687E-1,1.700164490E0,9.035360870E0,9.198043308E0
1.245947758E1,3.170407104E-1,1.670226746E0,9.013656006E0,9.172576889E0
1.246950158E1,3.379971313E-1,1.610500946E0,9.121431885E0,9.268682484E0
1.247952658E1,3.402424622E-1,1.584455109E0,9.355095978E0,9.494423820E0
1.248955158E1,3.534150696E-1,1.557511139E0,9.542805634E0,9.675530090E0
1.249957558E1,3.650907898E-1,1.587748260E0,9.675729218E0,9.811930071E0
1.250960058E1,3.549119568E-1,1.563947754E0,9.715396729E0,9.846868978E0
1.251962558E1,3.589535522E-1,1.526226196E0,9.754914551E0,9.880109916E0
1.252964958E1,3.541635132E-1,1.528172150E0,9.781559143E0,9.906545371E0
1.253967458E1,3.350033569E-1,1.522783356E0,9.803862762E0,9.927075172E0
1.254969958E1,3.873944092E-1,1.539698181E0,9.873318329E0,1.000015799E1
1.255972358E1,3.855981445E-1,1.556463318E0,9.842781830E0,9.972543213E0
1.256974858E1,3.526666260E-1,1.501677246E0,9.838291168E0,9.958482887E0
1.257977358E1,3.814068604E-1,1.527573395E0,9.872420197E0,9.997181213E0
1.258979758E1,3.489244080E-1,1.549278259E0,9.946067047E0,1.007205347E1
1.259982258E1,3.061134338E-1,1.512155457E0,1.004770569E1,1.016546650E1
1.260984758E1,2.791694641E-1,1.431622925E0,1.004680756E1,1.015213386E1
1.261987158E1,2.724334717E-1,1.464404755E0,9.995614014E0,1.010598836E1
1.262989658E1,2.642005920E-1,1.493144989E0,9.947863312E0,1.006276644E1
1.263992158E1,3.122506714E-1,1.607656860E0,9.972861328E0,1.010643479E1
1.264994558E1,3.255729675E-1,1.708097992E0,9.946067047E0,1.009692261E1
1.265997058E1,3.718267822E-1,1.768422546E0,9.908794556E0,1.007222830E1
1.266999558E1,4.248165894E-1,1.800904999E0,9.949360199E0,1.011995535E1
1.268001958E1,4.120930481E-1,1.895508270E0,1.006851242E1,1.025366835E1
1.269004458E1,3.918850708E-1,1.929786987E0,1.014275803E1,1.033214364E1
1.270006958E1,4.071533203E-1,1.895059204E0,1.012060410E1,1.030454514E1
1.271009358E1,4.474195862E-1,1.828447723E0,1.007659561E1,1.025091140E1
1.272011858E1,5.254074097E-1,1.697470093E0,1.011267059E1,1.026759778E1
1.273014358E1,6.890171814E-1,1.580114136E0,1.022299118E1,1.036730698E1
1.274016758E1,7.373666382E-1,1.540746002E0,1.037806870E1,1.051769545E1
1.275019258E1,5.920188904E-1,1.504970398E0,1.034738251E1,1.047300086E1
1.276021758E1,5.426216125E-1,1.488504639E0,1.035292099E1,1.047344534E1
1.277024158E1,5.562432861E-1,1.453477478E0,1.039618103E1,1.051202090E1
1.278026913E1,4.552033997E-1,1.507964172E0,1.042537033E1,1.054369540E1
1.279029413E1,3.715274048E-1,1.562600555E0,1.039109161E1,1.051449181E1
1.280031812E1,3.020718384E-1,1.610950012E0,1.023661285E1,1.036699812E1
1.281034313E1,2.788700867E-1,1.683399353E0,1.008797195E1,1.023126483E1
1.282036813E1,2.225871277E-1,1.816023560E0,1.000100281E1,1.016698302E1
1.283039213E1,1.827699280E-1,1.885628815E0,9.907746735E0,1.008724176E1
1.284041713E1,1.166075134E-1,1.852547607E0,9.871522064E0,1.004452477E1
1.285044212E1,5.388793945E-2,1.727108459E0,9.894723816E0,1.004446947E1
1.286046613E1,1.281335449E-1,1.541494446E0,9.943821716E0,1.006340964E1
1.287049113E1,1.933978271E-1,1.424737244E0,1.005159760E1,1.015391024E1
1.288051613E1,1.577719116E-1,1.316512299E0,1.012943573E1,1.021584871E1
1.289054013E1,2.281256104E-1,1.263672180E0,1.020413040E1,1.028460918E1
1.290056513E1,3.243754578E-1,1.315314789E0,1.026819717E1,1.035717846E1
1.291059013E1,2.998265076E-1,1.381177826E0,1.033286270E1,1.042907473E1
1.292061413E1,3.483256531E-1,1.468596039E0,1.033480865E1,1.044444230E1
1.293063912E1,4.770579529E-1,1.506616974E0,1.023331970E1,1.035462752E1
1.294066413E1,5.144801331E-1,1.548978882E0,1.004860382E1,1.018029784E1
1.295068813E1,4.915777588E-1,1.584604797E0,9.861941986E0,1.000052603E1
1.296071313E1,4.333488464E-1,1.542542267E0,9.729916534E0,9.860958556E0
1.297073813E1,4.408332825E-1,1.465003510E0,9.718390503E0,9.838073146E0
1.298076212E1,6.533912659E-1,1.346599731E0,9.708960114E0,9.823652960E0
1.299078713E1,6.210585022E-1,1.274749146E0,9.651479645E0,9.755088845E0
1.300081213E1,2.387535095E-1,1.223854980E0,9.578431549E0,9.659253345E0
1.301083613E1,2.088157654E-1,1.153501282E0,9.610614624E0,9.681842938E0
1.302086113E1,3.197351074E-1,1.145717468E0,9.675579529E0,9.748422348E0
1.303088612E1,2.197430420E-1,1.143172760E0,9.634265442E0,9.704339316E0
1.304091013E1,1.526824951E-1,1.148262177E0,9.467212830E0,9.537816141E0
1.305093513E1,1.875599670E-1,1.133293304E0,9.206754456E0,9.278138825E0
1.306096013E1,2.583627319E-1,1.160836029E0,9.013206940E0,9.091325037E0
1.307098413E1,2.887495422E-1,1.199156342E0,8.895850983E0,8.980953008E0
1.308100913E1,3.686833191E-1,1.250499573E0,8.833879852E0,8.929563809E0
1.309103413E1,4.694238281E-1,1.349294128E0,8.825497284E0,8.940377827E0
1.310105813E1,5.298980713E-1,1.373843079E0,8.790320435E0,8.912798108E0
1.311108312E1,6.248007202E-1,1.385518799E0,8.719667358E0,8.851137617E0
1.312110813E1,6.722520447E-1,1.368903351E0,8.668174438E0,8.801310544E0
1.313113213E1,7.086264038E-1,1.332528992E0,8.705446930E0,8.835303681E0
1.314115713E1,8.301736450E-1,1.378034363E0,8.821006622E0,8.966511296E0
1.315118213E1,8.990304565E-1,1.482816467E0,8.995693359E0,9.161304462E0
1.316120613E1,9.466314697E-1,1.589843903E0,9.256750488E0,9.439869934E0
1.317123113E1,9.873468018E-1,1.570084991E0,9.476942596E0,9.656731412E0
1.318125613E1,9.984237671E-1,1.492695923E0,9.683513031E0,9.848625069E0
1.319128013E1,9.319619751E-1,1.404978333E0,9.938432922E0,1.008042490E1
1.320130513E1,8.598120117E-1,1.313518524E0,1.014305740E1,1.026383072E1
1.321133013E1,7.990383911E-1,1.256038055E0,1.026415558E1,1.037154683E1
1.322135413E1,8.378077698E-1,1.256187744E0,1.030082932E1,1.041090842E1
1.323137913E1,8.581654358E-1,1.364412689E0,1.031220566E1,1.043741613E1
1.324140413E1,7.219487000E-1,1.481169891E0,1.019993912E1,1.033217461E1
1.325142813E1,6.255491638E-1,1.557511139E0,9.986483002E0,1.012654904E1
1.326145313E1,5.412744141E-1,1.662592621E0,9.741143188E0,9.896820845E0
1.327147713E1,4.614903259E-1,1.737736359E0,9.455088043E0,9.624520293E0
1.328150213E1,4.016148376E-1,1.764231262E0,9.191037140E0,9.367442027E0
1.329152712E1,3.546125793E-1,1.832938385E0,9.051976318E0,9.242493628E0
1.330155213E1,3.043171692E-1,1.947001190E0,8.936117249E0,9.150825867E0
1.331157613E1,2.612068176E-1,1.980381775E0,8.886719971E0,9.108453920E0
1.332160113E1,1.465452576E-1,1.957479401E0,8.858728180E0,9.073602707E0
1.333162513E1,8.861572266E-2,1.889520721E0,8.913663940E0,9.112164734E0
1.334165013E1,2.918930054E-2,1.803150330E0,9.003327484E0,9.182162540E0
1.335167513E1,2.380050659E-2,1.750908966E0,9.150321808E0,9.316363983E0
1.336169913E1,-0.000000000E0,1.684447174E0,9.305698700E0,9.456922892E0
1.337172412E1,6.706054688E-2,1.657802582E0,9.458081818E0,9.602505828E0
1.338174913E1,1.883084106E-1,1.665736084E0,9.561816101E0,9.707649762E0
1.339177313E1,2.381547546E-1,1.663790131E0,9.556427307E0,9.703103532E0
1.340179813E1,2.728825378E-1,1.695524139E0,9.489965515E0,9.644102471E0
1.341182313E1,3.903881836E-1,1.724713440E0,9.433532867E0,9.597842557E0
1.342184713E1,5.143304443E-1,1.748364258E0,9.393416290E0,9.568572672E0
1.343187213E1,6.146218872E-1,1.762734375E0,9.361532593E0,9.545851718E0
1.344189713E1,7.797285461E-1,1.836830292E0,9.405690765E0,9.615037228E0
1.345192113E1,8.583151245E-1,1.842967529E0,9.473200378E0,9.688898780E0
1.346194613E1,8.776249695E-1,1.838925934E0,9.627679138E0,9.840938968E0
1.347197113E1,9.312135315E-1,1.816622314E0,9.819729767E0,1.002967437E1
1.348199513E1,9.690847778E-1,1.823657684E0,1.001297791E1,1.022372629E1
1.349202013E1,1.036893768E0,1.876647491E0,1.018886215E1,1.041200588E1
1.350204513E1,9.725276184E-1,1.848056946E0,1.024813889E1,1.045875112E1
1.351206913E1,9.057664490E-1,1.779499512E0,1.019814285E1,1.039178276E1
1.352209413E1,9.306147766E-1,1.732646942E0,1.015188904E1,1.034064603E1
1.353211913E1,9.122030640E-1,1.706900482E0,1.016640884E1,1.034898509E1
1.354214313E1,8.268804932E-1,1.702858887E0,1.021430923E1,1.038824205E1
1.355216812E1,8.178991699E-1,1.727108459E0,1.023960663E1,1.041640085E1
1.356219313E1,7.677534485E-1,1.695224762E0,1.023062531E1,1.039850597E1
1.357221713E1,6.566844177E-1,1.677262115E0,1.024724075E1,1.040434456E1
1.358224213E1,5.860313416E-1,1.738634491E0,1.030801437E1,1.047002593E1
1.359226713E1,5.625302124E-1,1.781295776E0,1.032313293E1,1.049078302E1
1.360229113E1,5.538482666E-1,1.917512512E0,1.021146515E1,1.040469234E1
1.361231613E1,5.252577209E-1,2.008373566E0,1.000055374E1,1.021374247E1
1.362234113E1,5.390290833E-1,2.009870453E0,9.811197510E0,1.002944306E1
1.363236512E1,5.547463989E-1,1.955084381E0,9.660760345E0,9.872202842E0
1.364239013E1,5.767506409E-1,1.905687103E0,9.644144897E0,9.847528392E0
1.365241513E1,6.939569092E-1,1.866618347E0,9.883497162E0,1.008213055E1
1.366243913E1,6.899153137E-1,1.815574493E0,1.021430923E1,1.039732692E1
1.367246413E1,7.289840698E-1,1.766177216E0,1.052551208E1,1.069753263E1
1.368248912E1,7.927514648E-1,1.820813599E0,1.079570023E1,1.097683745E1
1.369251313E1,7.384144592E-1,1.821861420E0,1.091500214E1,1.109061344E1
1.370253813E1,6.715036011E-1,1.792223053E0,1.088012466E1,1.104717581E1
1.371256313E1,7.720944214E-1,1.819616089E0,1.083656525E1,1.101536558E1
1.372258713E1,8.024812317E-1,1.807491302E0,1.070962921E1,1.089069138E1
1.373261212E1,8.192463684E-1,1.768721924E0,1.053883438E1,1.071758238E1
1.374263713E1,8.755293274E-1,1.676813049E0,1.051458481E1,1.068338651E1
1.375266113E1,8.713380432E-1,1.556463318E0,1.061322968E1,1.076208401E1
1.376268613E1,8.879534912E-1,1.426832886E0,1.079644867E1,1.092646408E1
1.377271083E1,8.295748901E-1,1.319057007E0,1.088281906E1,1.099380992E1
1.378273483E1,8.062234497E-1,1.208886108E0,1.077339661E1,1.087094643E1
1.379275983E1,8.279283142E-1,1.137484589E0,1.066592010E1,1.075830787E1
1.380278483E1,7.834707642E-1,9.749226379E-1,1.046892975E1,1.054337663E1
1.381280883E1,7.114704895E-1,8.693920898E-1,1.030277527E1,1.036384152E1
1.382283383E1,6.659651184E-1,7.758366394E-1,1.017628830E1,1.022752539E1
1.383285883E1,7.056326294E-1,5.986051941E-1,1.010578491E1,1.014806062E1
1.384288283E1,7.343728638E-1,4.529580688E-1,1.013692017E1,1.017357484E1
1.385290783E1,7.363188171E-1,4.781057739E-1,1.010518616E1,1.014325085E1
1.386293283E1,6.057902527E-1,6.105802917E-1,9.818083191E0,9.855686058E0
1.387295683E1,4.513114929E-1,7.655081177E-1,9.347312164E0,9.389458421E0
1.388298183E1,3.712280273E-1,9.857002258E-1,8.872499542E0,8.934800687E0
1.389300683E1,3.248245239E-1,1.171912994E0,8.472381592E0,8.559213800E0
1.390303083E1,2.369572449E-1,1.276844788E0,8.171058197E0,8.273613081E0
1.391305583E1,1.451980591E-1,1.384770355E0,8.004304962E0,8.124504252E0
1.392308083E1,8.562194824E-2,1.515149231E0,8.051007843E0,8.192785582E0
1.393310483E1,-1.182540894E-2,1.575773163E0,8.143066406E0,8.294138376E0
1.394312983E1,-3.098556519E-2,1.662442932E0,8.328979797E0,8.493325678E0
1.395315483E1,-8.756790161E-2,1.777254181E0,8.498427429E0,8.682716702E0
1.396317883E1,-1.104702759E-1,1.826950836E0,8.742719421E0,8.932250328E0
1.397320383E1,-2.514770508E-2,1.865570526E0,8.934021606E0,9.126758891E0
1.398322883E1,8.307723999E-2,1.825603638E0,9.009614410E0,9.193088833E0
1.399325283E1,1.290316772E-1,1.725012817E0,8.929231567E0,9.095245724E0
1.400327783E1,1.887574768E-1,1.538949738E0,8.889564056E0,9.023765555E0
1.401330283E1,2.165995789E-1,1.307830353E0,9.026978302E0,9.123797064E0
1.402332683E1,2.558180237E-1,1.135239258E0,9.293723602E0,9.366296463E0
1.403335183E1,3.942800903E-1,1.053658905E0,9.696835327E0,9.761878366E0
1.404337583E1,5.044509888E-1,1.035396881E0,1.009021729E1,1.015573741E1
1.405340083E1,4.736151123E-1,1.053509216E0,1.038705002E1,1.045107655E1
1.406342583E1,4.378395081E-1,1.096020813E0,1.045351181E1,1.051992748E1
1.407344983E1,4.426295471E-1,1.141077118E0,1.023451721E1,1.030744005E1
1.408347483E1,3.951782227E-1,1.221909027E0,9.883497162E0,9.966581342E0
1.409349983E1,3.504212952E-1,1.338815918E0,9.580227814E0,9.679668802E0
1.410352383E1,3.278182983E-1,1.473086700E0,9.409432983E0,9.529684063E0
1.411354883E1,4.231700134E-1,1.593436432E0,9.418264618E0,9.561475876E0
1.412357383E1,4.420307922E-1,1.715432739E0,9.405092010E0,9.570467932E0
1.413359783E1,3.644920349E-1,1.812730408E0,9.243877258E0,9.426988530E0
1.414362283E1,4.195774841E-1,1.861079865E0,8.998986511E0,9.198990257E0
1.415364783E1,4.273612976E-1,1.913021851E0,8.820258179E0,9.035443798E0
1.416367183E1,3.588038635E-1,1.956730957E0,8.665929108E0,8.891336432E0
1.417369683E1,3.941304016E-1,1.973645782E0,8.584498444E0,8.817268850E0
1.418372183E1,5.197192383E-1,1.988764343E0,8.676856384E0,8.917013425E0
1.419374583E1,5.219645691E-1,1.973645782E0,8.837622070E0,9.070352173E0
1.420377083E1,4.366419983E-1,1.967658234E0,8.984915771E0,9.208205394E0
1.421379583E1,4.203259277E-1,1.960922241E0,9.018595734E0,9.238882991E0
1.422381983E1,4.129911804E-1,1.989812164E0,8.956474915E0,9.184136163E0
1.423384483E1,3.689826965E-1,2.031725006E0,8.876092072E0,9.113125984E0
1.424386983E1,4.445755005E-1,1.982926483E0,8.868607635E0,9.098452957E0
1.425389383E1,4.339476013E-1,1.907333679E0,9.026529236E0,9.236041486E0
1.426391883E1,2.636018372E-1,1.831890564E0,9.319170685E0,9.501171045E0
1.427394383E1,1.698966980E-1,1.792522430E0,9.794132996E0,9.958265044E0
1.428396783E1,1.546284485E-1,1.700014801E0,1.023571472E1,1.037708129E1
1.429399283E1,2.104623413E-1,1.672023010E0,1.063628174E1,1.076895745E1
1.430401783E1,2.365081787E-1,1.700763245E0,1.079779587E1,1.093347737E1
1.431404183E1,1.869612122E-1,1.695374451E0,1.070977890E1,1.084475049E1
1.432406683E1,1.619631958E-1,1.692829742E0,1.047806076E1,1.061516189E1
1.433409183E1,2.143542480E-1,1.681902466E0,1.028645920E1,1.042525714E1
1.434411583E1,2.785707092E-1,1.723515930E0,1.033151550E1,1.047799224E1
1.435414083E1,2.567161560E-1,1.748364258E0,1.048689240E1,1.063473520E1
1.436416583E1,2.565664673E-1,1.748214569E0,1.070034851E1,1.084525421E1
1.437418983E1,2.906954956E-1,1.731299744E0,1.086306015E1,1.100399830E1
1.438421483E1,3.224295044E-1,1.820813599E0,1.086949677E1,1.102566474E1
1.439423983E1,3.188369751E-1,1.954186249E0,1.070633606E1,1.088788927E1
1.440426383E1,3.379971313E-1,2.130220184E0,1.048090485E1,1.070053487E1
1.441428883E1,3.553610229E-1,2.179318085E0,1.031519943E1,1.054888848E1
1.442431383E1,4.126918030E-1,2.067201233E0,1.019649628E1,1.041211659E1
1.443433783E1,4.427792358E-1,2.028132477E0,1.020577698E1,1.041476157E1
1.444436283E1,4.026626587E-1,2.053280182E0,1.038300842E1,1.059174021E1
1.445438783E1,3.885919189E-1,2.167043610E0,1.058119629E1,1.080781183E1
1.446441183E1,4.197271729E-1,2.266885986E0,1.063074326E1,1.087785113E1
1.447443683E1,6.342311096E-1,2.362986145E0,1.062191162E1,1.090004400E1
1.448446183E1,8.500822449E-1,2.486179962E0,1.063388672E1,1.095368784E1
1.449448583E1,9.072633362E-1,2.598147125E0,1.071411987E1,1.106191032E1
1.450451083E1,9.397457886E-1,2.613115997E0,1.075483521E1,1.110756398E1
1.451453583E1,9.756710815E-1,2.415526886E0,1.074106384E1,1.105247288E1
1.452455983E1,9.954299927E-1,2.006577301E0,1.065933380E1,1.089213617E1
1.453458483E1,1.047671356E0,1.538949738E0,1.060529617E1,1.076746435E1
1.454460883E1,9.830058289E-1,1.068328400E0,1.057326279E1,1.067246513E1
1.455463383E1,8.990304565E-1,7.096742249E-1,1.057670563E1,1.063854291E1
1.456465883E1,7.488926697E-1,5.174739075E-1,1.056817337E1,1.060730446E1
1.457468283E1,5.116360474E-1,5.234614563E-1,1.042387344E1,1.044954166E1
1.458470783E1,4.384382629E-1,6.054908752E-1,1.014500336E1,1.017250905E1
1.459473283E1,4.544549561E-1,7.048841858E-1,9.778415680E0,9.814316290E0
1.460475683E1,4.809498596E-1,8.966354370E-1,9.369915161E0,9.424997507E0
1.461478183E1,4.923262024E-1,1.155896301E0,8.991801453E0,9.079150550E0
1.462480683E1,4.188290405E-1,1.350042572E0,8.504864044E0,8.621528004E0
1.463483083E1,3.418890381E-1,1.527124329E0,8.041278076E0,8.192139521E0
1.464485583E1,3.802093506E-1,1.648072815E0,7.729027405E0,7.911925668E0
1.465488083E1,5.234614563E-1,1.690285034E0,7.638615417E0,7.840887762E0
1.466490483E1,5.845344543E-1,1.875150604E0,7.733817444E0,7.979335973E0
1.467492983E1,7.360194397E-1,2.030228119E0,7.973469086E0,8.260736050E0
1.468495483E1,9.897418213E-1,2.096390533E0,8.282576294E0,8.600901825E0
1.469497883E1,1.046024780E0,2.143093414E0,8.570577393E0,8.896168505E0
1.470500383E1,9.623487854E-1,2.201172638E0,8.842711487E0,9.163232105E0
1.471502883E1,8.622070313E-1,2.032922516E0,9.100325775E0,9.364406235E0
1.472505283E1,8.134085083E-1,1.821112976E0,9.469458160E0,9.677227068E0
1.473507783E1,8.135581970E-1,1.576072540E0,9.785151672E0,9.944600286E0
1.474510283E1,8.424481201E-1,1.325942688E0,1.017539017E1,1.029594133E1
1.475512683E1,7.508386230E-1,1.079854431E0,1.057850189E1,1.065995059E1
1.476515183E1,6.524931335E-1,8.378077698E-1,1.096529755E1,1.101659745E1
1.477517583E1,5.566923523E-1,7.461982727E-1,1.127335693E1,1.131173262E1
1.478519983E1,4.658312988E-1,7.786807251E-1,1.134415970E1,1.138039111E1
1.479522483E1,3.682342529E-1,8.931925964E-1,1.096410004E1,1.100658344E1
1.480524983E1,2.779719543E-1,1.098116455E0,1.025412643E1,1.031650314E1
1.481527383E1,2.577639771E-1,1.273551636E0,9.443112946E0,9.532090964E0
1.482529883E1,3.071612549E-1,1.429527283E0,8.855884094E0,8.975777369E0
1.483532383E1,3.607498169E-1,1.547182617E0,8.469687195E0,8.617396107E0
1.484534783E1,4.502636719E-1,1.697021027E0,8.071515198E0,8.260264846E0
1.485537283E1,5.292993164E-1,1.787133636E0,7.878716125E0,8.096182569E0
1.486539783E1,5.364843750E-1,1.881736908E0,7.813451843E0,8.054736432E0
1.487542183E1,4.586462402E-1,1.914069672E0,7.819738770E0,8.063642695E0
1.488544683E1,3.288661194E-1,1.862876129E0,7.922275543E0,8.144992951E0
1.489547183E1,2.460882568E-1,1.830693054E0,8.015681305E0,8.225760954E0
1.490549583E1,2.968327332E-1,1.791923676E0,8.007598114E0,8.211012586E0
1.491552083E1,3.010240173E-1,1.739083557E0,8.016878815E0,8.208859422E0
1.492554583E1,2.978805542E-1,1.684896240E0,8.213420105E0,8.389748386E0
1.493556983E1,3.299139404E-1,1.634151764E0,8.646170197E0,8.805427546E0
1.494559483E1,2.981799316E-1,1.652713165E0,9.154812469E0,9.307575594E0
1.495561883E1,3.062631226E-1,1.705253906E0,9.598938904E0,9.754041012E0
1.496564383E1,3.041674805E-1,1.718576202E0,9.773775330E0,9.928378831E0
1.497566883E1,3.170407104E-1,1.686842194E0,9.832153931E0,9.980841764E0
1.498569283E1,4.138893127E-1,1.694027252E0,9.974507904E0,1.012580074E1
1.499571783E1,5.013075256E-1,1.746418304E0,1.015727783E1,1.031850663E1
1.500574283E1,5.346881104E-1,1.778152313E0,1.029828461E1,1.046433863E1
1.501576683E1,6.225553894E-1,1.846260681E0,1.039887543E1,1.057983288E1
1.502579183E1,7.611671448E-1,1.977238312E0,1.043120819E1,1.064419800E1
1.503581683E1,9.315129089E-1,2.035616913E0,1.029514114E1,1.053571942E1
1.504584083E1,1.042731628E0,2.096989288E0,1.010413834E1,1.037199426E1
1.505586583E1,1.103205872E0,2.095043335E0,1.008363098E1,1.035788992E1
1.506589083E1,1.147364044E0,2.085163879E0,1.022119492E1,1.049462616E1
1.507591483E1,1.175056458E0,2.099234619E0,1.023047562E1,1.050952782E1
1.508593983E1,1.176852722E0,2.088157654E0,1.030891251E1,1.058390579E1
1.509596483E1,1.135688324E0,2.125130768E0,1.037806870E1,1.065412026E1
1.510598883E1,1.055006104E0,2.084116058E0,1.046369064E1,1.072125923E1
1.511601383E1,1.008303223E0,2.067799988E0,1.055110886E1,1.079899858E1
1.512603883E1,9.119036865E-1,2.084864502E0,1.066636917E1,1.090640452E1
1.513606283E1,8.324189758E-1,2.134860535E0,1.071277267E1,1.095509239E1
1.514608783E1,8.114625549E-1,2.319127350E0,1.058538757E1,1.086679590E1
1.515611283E1,7.967930603E-1,2.420616302E0,1.029184799E1,1.060265993E1
1.516613683E1,7.330256653E-1,2.407593384E0,1.005189697E1,1.036216509E1
1.517616183E1,7.683522034E-1,2.485730896E0,1.003348526E1,1.036532921E1
1.518618683E1,8.515791321E-1,2.497406616E0,1.028885422E1,1.062180530E1
1.519621083E1,8.773255920E-1,2.352507935E0,1.079584991E1,1.108396902E1
1.520623583E1,8.684939575E-1,2.163600769E0,1.138083344E1,1.161717779E1
1.521626083E1,8.382568359E-1,2.065105591E0,1.184935913E1,1.205714093E1
1.522628483E1,7.502398682E-1,1.986968079E0,1.198407898E1,1.217082787E1
1.523630983E1,7.279362488E-1,2.016157379E0,1.183992874E1,1.203240185E1
1.524633483E1,8.443940735E-1,2.079475708E0,1.168709656E1,1.190064900E1
1.525635883E1,9.548643494E-1,2.036515045E0,1.151031418E1,1.172802166E1
1.526638383E1,1.044228516E0,1.912872162E0,1.144220581E1,1.164789968E1
1.527640883E1,1.097517700E0,1.706301727E0,1.140672958E1,1.158574514E1
1.528643283E1,1.057101746E0,1.493144989E0,1.133457962E1,1.148127350E1
1.529645783E1,1.071771240E0,1.158740387E0,1.123788071E1,1.134818645E1
1.530648283E1,1.147364044E0,8.613088989E-1,1.110435837E1,1.119665450E1
1.531650683E1,1.155596924E0,7.453001404E-1,1.089329727E1,1.097974508E1
1.532653183E1,1.030307465E0,6.752458191E-1,1.050051407E1,1.057252506E1
1.533655683E1,8.702902222E-1,5.327421570E-1,1.001118164E1,1.006305009E1
1.534658083E1,6.676116943E-1,5.363346863E-1,9.438771973E0,9.477540642E0
1.535660583E1,5.575904846E-1,6.337820435E-1,8.959468689E0,8.999148072E0
1.536662983E1,4.776567078E-1,8.695417786E-1,8.605754242E0,8.662751578E0
1.537665483E1,3.715274048E-1,1.061293030E0,8.284821625E0,8.360780159E0
1.538667983E1,2.094145203E-1,1.150357819E0,8.132887573E0,8.216510076E0
1.539670383E1,3.981719971E-2,1.299747162E0,8.040978699E0,8.145444526E0
1.540672883E1,-1.032852173E-1,1.333427124E0,7.951165466E0,8.062861031E0
1.541675383E1,-1.999841309E-1,1.370100861E0,7.934550018E0,8.054455538E0
1.542677783E1,-2.465373230E-1,1.479223938E0,8.009693756E0,8.148869748E0
1.543680283E1,-1.929487610E-1,1.613794098E0,8.229586487E0,8.388543041E0
1.544682783E1,-1.686991882E-1,1.648072815E0,8.564739532E0,8.723495095E0
1.545685183E1,-1.399589539E-1,1.613494720E0,8.950038300E0,9.095391101E0
1.546687683E1,-6.900650024E-2,1.580114136E0,9.301657104E0,9.435165471E0
1.547690183E1,1.926493835E-1,1.500330048E0,9.542955322E0,9.662096062E0
1.548692583E1,4.436773682E-1,1.393003235E0,9.678722992E0,9.788512981E0
1.549695083E1,4.891827393E-1,1.244661713E0,9.746831360E0,9.838150440E0
1.550697583E1,4.893324280E-1,9.816586304E-1,9.789642334E0,9.850898280E0
1.551699983E1,4.632865906E-1,7.970924377E-1,9.785451050E0,9.828786449E0
1.552702483E1,4.089495850E-1,7.453001404E-1,9.669741669E0,9.707039508E0
1.553704983E1,3.986210632E-1,8.276289368E-1,9.404642944E0,9.449400897E0
1.554707383E1,3.025209045E-1,9.780661011E-1,9.061855774E0,9.119504497E0
1.555709883E1,2.862048340E-1,1.177601166E0,8.571325836E0,8.656574629E0
1.556712383E1,3.064128113E-1,1.362915802E0,8.101003876E0,8.220565193E0
1.557714783E1,3.028202820E-1,1.538500671E0,7.848928070E0,8.004021257E0
1.558717283E1,3.388952637E-1,1.650168457E0,7.878865814E0,8.056949327E0
1.559719783E1,3.564088440E-1,1.776805115E0,8.060737610E0,8.261934065E0
1.560722183E1,3.272195435E-1,1.798060913E0,8.250542908E0,8.450535720E0
1.561724683E1,2.378553772E-1,1.816322937E0,8.404273224E0,8.601593609E0
1.562727183E1,1.550775146E-1,1.825154572E0,8.521030426E0,8.715686879E0
1.563729583E1,2.061213684E-1,1.808838501E0,8.514893188E0,8.707341084E0
1.564732083E1,2.706372070E-1,1.850751343E0,8.452772369E0,8.657244698E0
1.565734583E1,3.118016052E-1,1.895957336E0,8.493038635E0,8.707673611E0
1.566736983E1,3.436853027E-1,1.930834808E0,8.732690277E0,8.950202351E0
1.567739483E1,3.034190369E-1,1.910626831E0,8.976533203E0,9.182630688E0
1.568741983E1,2.881507874E-1,1.895059204E0,9.191486206E0,9.389233139E0
1.569744383E1,3.234773254E-1,1.977088623E0,9.479038239E0,9.688430365E0
1.570746883E1,3.122506714E-1,2.014061737E0,9.732760620E0,9.943871200E0
1.571749383E1,3.297642517E-1,2.018103333E0,9.757010193E0,9.968988586E0
1.572751783E1,3.957769775E-1,2.079775085E0,9.672136688E0,9.901127811E0
1.573754283E1,4.604425049E-1,2.110311584E0,9.629325714E0,9.868603548E0
1.574756683E1,4.706213379E-1,2.173629913E0,9.745933228E0,9.996467672E0
1.575759183E1,4.050576782E-1,2.214494934E0,9.965825958E0,1.021693430E1
1.576761683E1,3.356021118E-1,2.216141510E0,1.018062927E1,1.042444840E1
1.577763996E1,2.628533936E-1,2.136207733E0,1.035920792E1,1.058043780E1
1.578766496E1,2.137554932E-1,2.059716797E0,1.059197388E1,1.079249903E1
1.579768996E1,2.146536255E-1,1.999541931E0,1.093775482E1,1.112109368E1
1.580771396E1,1.504371643E-1,1.916764069E0,1.142663818E1,1.158726353E1
1.581773896E1,1.010398865E-1,1.905238037E0,1.184456909E1,1.199724793E1
1.582776396E1,5.613327026E-2,1.925745392E0,1.200473602E1,1.215834418E1
1.583778796E1,1.065783691E-1,1.967508545E0,1.192540100E1,1.208708558E1
1.584781296E1,1.606159973E-1,2.208507385E0,1.167512146E1,1.188325559E1
1.585783796E1,2.559677124E-1,2.456242218E0,1.134775223E1,1.161335980E1
1.586786196E1,4.718188477E-1,2.575843506E0,1.105645798E1,1.136234332E1
1.587788696E1,7.409591675E-1,2.607128448E0,1.099254089E1,1.132175316E1
1.588791196E1,8.170010376E-1,2.545756073E0,1.102098175E1,1.134065269E1
1.589793596E1,7.849676514E-1,2.467468872E0,1.107906097E1,1.137761701E1
1.590796096E1,7.171586609E-1,2.420915680E0,1.121737335E1,1.149802653E1
1.591798596E1,6.659651184E-1,2.377655640E0,1.116468292E1,1.143446110E1
1.592800996E1,7.652087402E-1,2.369572449E0,1.092667786E1,1.120681520E1
1.593803496E1,8.524772644E-1,2.380948792E0,1.063448547E1,1.093105283E1
1.594805996E1,8.972341919E-1,2.264041901E0,1.042941193E1,1.070997423E1
1.595808396E1,9.624984741E-1,1.897903290E0,1.045411057E1,1.066849886E1
1.596810896E1,1.026265869E0,1.384171600E0,1.074390793E1,1.088120904E1
1.597813396E1,1.008602600E0,9.746232605E-1,1.118129837E1,1.126892200E1
1.598815796E1,7.845185852E-1,5.710624695E-1,1.162347885E1,1.166391197E1
1.599818296E1,7.005432129E-1,2.616558838E-1,1.183903061E1,1.186262494E1
1.600820796E1,7.235952759E-1,3.143463135E-1,1.157018967E1,1.159705534E1
1.601823196E1,6.762936401E-1,5.179229736E-1,1.093625793E1,1.096938261E1
1.602825696E1,7.768844604E-1,7.876620483E-1,1.012269974E1,1.018297653E1
1.603828196E1,9.337582397E-1,1.098415833E0,9.350755005E0,9.461238870E0
1.604830596E1,9.475296021E-1,1.358574829E0,8.591084747E0,8.749301403E0
1.605833096E1,9.418414307E-1,1.523382111E0,7.842341766E0,8.044257748E0
1.606835596E1,9.716294861E-1,1.691332855E0,7.182064819E0,7.442225860E0
1.607837996E1,1.076561279E0,1.873054962E0,6.938670959E0,7.267219122E0
1.608840496E1,1.103954315E0,2.032174072E0,6.987619171E0,7.360385063E0
1.609842896E1,1.096469879E0,2.120640106E0,7.194488983E0,7.580239599E0
1.610845396E1,1.084045715E0,2.050286407E0,7.544461212E0,7.892890754E0
1.611847896E1,1.059945831E0,1.944755859E0,8.044421539E0,8.343756853E0
1.612850296E1,1.103505249E0,1.794917450E0,8.658893738E0,8.911559530E0
1.613852796E1,1.049617310E0,1.642234955E0,9.235345001E0,9.438762071E0
1.614855296E1,9.128018188E-1,1.426982574E0,9.678722992E0,9.825841704E0
1.615857696E1,8.893006897E-1,1.306782532E0,1.006357269E1,1.018695399E1
1.616860196E1,6.640191650E-1,1.127006378E0,1.030921188E1,1.039186771E1
1.617862696E1,4.629872131E-1,1.050665131E0,1.043255539E1,1.049554507E1
1.618865096E1,3.165916443E-1,1.049467621E0,1.037597305E1,1.043371599E1
1.619867596E1,1.270857239E-1,1.104702759E0,1.005069946E1,1.011202644E1
1.620870096E1,9.370513916E-2,1.253942413E0,9.488169250E0,9.571128876E0
1.621872496E1,2.454895020E-1,1.493594055E0,8.860823822E0,8.989176108E0
1.622874996E1,4.174818420E-1,1.748064880E0,8.258775787E0,8.452064802E0
1.623877496E1,5.632786560E-1,1.967209167E0,7.713908844E0,7.980700747E0
1.624879896E1,6.147715759E-1,2.088007965E0,7.362140350E0,7.677163011E0
1.625882396E1,6.530918884E-1,2.189347229E0,7.191495209E0,7.545685763E0
1.626884896E1,5.535488892E-1,2.226470032E0,7.072792053E0,7.435588249E0
1.627887296E1,4.908293152E-1,2.177521820E0,7.051386566E0,7.396253592E0
1.628889796E1,4.712200928E-1,2.154769135E0,7.226821747E0,7.555926876E0
1.629892296E1,4.706213379E-1,2.180665283E0,7.560627594E0,7.882884950E0
1.630894696E1,4.028123474E-1,2.118843842E0,7.875273285E0,8.165273193E0
1.631897196E1,4.162843323E-1,2.054627380E0,8.176446991E0,8.440916521E0
1.632899696E1,4.162843323E-1,2.044747925E0,8.430019684E0,8.684441179E0
1.633902096E1,3.444337463E-1,1.935774536E0,8.611143036E0,8.832759594E0
1.634904596E1,3.430865479E-1,1.828298035E0,8.951684875E0,9.142923175E0
1.635907096E1,3.561094666E-1,1.790127411E0,9.497899017E0,9.671683196E0
1.636909496E1,2.984793091E-1,1.803749084E0,9.944270782E0,1.011094071E1
1.637911996E1,3.180885315E-1,1.817370758E0,1.028466293E1,1.044884244E1
1.638914496E1,4.203259277E-1,1.834135895E0,1.046653473E1,1.063433485E1
1.639916896E1,5.602848816E-1,1.897903290E0,1.053269714E1,1.071698023E1
1.640919396E1,7.469467163E-1,1.931433563E0,1.056892181E1,1.076988734E1
1.641921896E1,9.297166443E-1,1.973945160E0,1.050575317E1,1.072994326E1
1.642924296E1,1.141376495E0,1.967358856E0,1.049078430E1,1.073451426E1
1.643926796E1,1.263223114E0,1.979932709E0,1.057745407E1,1.083505426E1
1.644929296E1,1.240919495E0,2.041604462E0,1.064256866E1,1.090744231E1
1.645931696E1,1.216969299E0,1.948947144E0,1.071277267E1,1.095640943E1
1.646934196E1,1.309626617E0,1.885628815E0,1.091739716E1,1.115617670E1
1.647936696E1,1.315165100E0,1.805844727E0,1.114657059E1,1.136823514E1
1.648939096E1,1.196611633E0,1.736838226E0,1.120015915E1,1.139701941E1
1.649941596E1,1.007854156E0,1.804647217E0,1.127335693E1,1.146128693E1
1.650944096E1,9.159452820E-1,1.983525238E0,1.129551086E1,1.150486392E1
1.651946496E1,8.171507263E-1,2.182012482E0,1.120285355E1,1.144258893E1
1.652948996E1,7.241940308E-1,2.393971710E0,1.099328934E1,1.127421696E1
1.653951496E1,5.966592407E-1,2.561772766E0,1.081695602E1,1.113217048E1
1.654953896E1,4.328997803E-1,2.716401215E0,1.063448547E1,1.098446717E1
1.655956396E1,3.905378723E-1,2.765798492E0,1.061188248E1,1.097334091E1
1.656958796E1,3.360511780E-1,2.671195221E0,1.084255280E1,1.117180225E1
1.657961296E1,2.507286072E-1,2.554737396E0,1.126557312E1,1.155433623E1
1.658963796E1,1.689985657E-1,2.423909454E0,1.168410278E1,1.193407539E1
1.659966196E1,2.888992310E-1,2.211950226E0,1.194890213E1,1.215534651E1
1.660968696E1,5.649252319E-1,2.008672943E0,1.212523544E1,1.230346464E1
1.661971196E1,7.969427490E-1,1.711989899E0,1.220891144E1,1.235409024E1
1.662973596E1,9.981243896E-1,1.278641052E0,1.228390549E1,1.239054112E1
1.663976096E1,1.210832062E0,9.523196411E-1,1.238778946E1,1.248320290E1
1.664978596E1,1.232087860E0,6.815327454E-1,1.234991821E1,1.242992386E1
1.665980996E1,1.226848755E0,4.875361633E-1,1.203317688E1,1.210537877E1
1.666983496E1,1.284778290E0,5.096900940E-1,1.145118713E1,1.153430215E1
1.667985996E1,1.252744904E0,5.673202515E-1,1.076980408E1,1.085725112E1
1.668988396E1,1.074315948E0,7.132667542E-1,9.925559692E0,1.000897794E1
1.669990896E1,8.481362915E-1,8.286767578E-1,9.037606201E0,9.115062599E0
1.670993396E1,6.480024719E-1,9.665400696E-1,8.181087341E0,8.263431309E0
1.671995796E1,4.379891968E-1,1.194815369E0,7.410489807E0,7.518961197E0
1.672998296E1,2.258802795E-1,1.309177551E0,6.892566833E0,7.019433404E0
1.674000796E1,8.487350464E-2,1.438209229E0,6.590494995E0,6.746130267E0
1.675003196E1,-1.751358032E-2,1.534309387E0,6.518195343E0,6.696363383E0
1.676005696E1,-1.362167358E-2,1.605561218E0,6.687193909E0,6.877250522E0
1.677008196E1,-9.789642334E-2,1.712588654E0,7.041806488E0,7.247729453E0
1.678010833E1,-1.546284485E-1,1.690883789E0,7.601342926E0,7.788672045E0
1.679013333E1,-1.154100037E-1,1.686842194E0,8.252788239E0,8.424207367E0
1.680015833E1,-1.035845947E-1,1.688039703E0,8.749754791E0,8.911701112E0
1.681018233E1,-7.738906860E-2,1.656754761E0,9.052275696E0,9.202962603E0
1.682020733E1,3.951782227E-2,1.525178375E0,9.187893677E0,9.313706080E0
1.683023233E1,1.055305481E-1,1.392254791E0,9.310788116E0,9.414896996E0
1.684025633E1,1.492396545E-1,1.183738403E0,9.350605316E0,9.426416544E0
1.685028133E1,2.107617188E-1,9.972262573E-1,9.402098236E0,9.457184145E0
