"Time (s)","Acceleration x (m/s^2)","Acceleration y (m/s^2)","Acceleration z (m/s^2)","Absolute acceleration (m/s^2)"
-1.663958363E-3,1.748364258E-1,1.607956238E0,9.409432983E0,9.547435263E0
8.360041655E-3,1.826202393E-1,1.611099701E0,9.553283844E0,9.689903230E0
1.838504168E-2,2.395019531E-1,1.623972931E0,9.812245331E0,9.948608330E0
2.841004165E-2,2.947370911E-1,1.575623474E0,9.971065063E0,1.009908896E1
3.843404166E-2,3.661386108E-1,1.552571411E0,9.946965179E0,1.007405836E1
4.845904163E-2,4.248165894E-1,1.525028687E0,9.789193268E0,9.916374663E0
5.848404166E-2,4.249662781E-1,1.480870514E0,9.697134705E0,9.818757319E0
6.850804167E-2,4.623884583E-1,1.415306854E0,9.739795990E0,9.852944865E0
7.853304164E-2,4.731660461E-1,1.406026154E0,9.724527740E0,9.837033873E0
8.855804167E-2,4.932243347E-1,1.403481445E0,9.723180542E0,9.836324022E0
9.858204168E-2,5.637277222E-1,1.341809692E0,9.883796539E0,9.990379183E0
1.086070416E-1,5.231620789E-1,1.414708099E0,9.750573578E0,9.866548670E0
1.186310417E-1,3.606001282E-1,1.564247131E0,9.898915100E0,1.002823123E1
1.286560416E-1,3.683839417E-1,1.547481995E0,9.668095093E0,9.798085016E0
1.386810417E-1,2.960842896E-1,1.436562653E0,9.645791473E0,9.756673168E0
1.487050417E-1,2.652484131E-1,1.509161682E0,9.708361359E0,9.828540379E0
1.587300416E-1,2.621049500E-1,1.530716858E0,9.665400696E0,9.789369934E0
1.687550417E-1,1.628613281E-1,1.583407288E0,9.546996918E0,9.678783632E0
1.787790417E-1,2.260299683E-2,1.576222229E0,9.478589172E0,9.608779325E0
1.888040417E-1,5.358856201E-2,1.579964447E0,9.578581238E0,9.708160378E0
1.988290417E-1,1.540296936E-1,1.606159973E0,9.669442291E0,9.803141804E0
2.088530416E-1,2.167492676E-1,1.589394836E0,9.717342682E0,9.848852978E0
2.188780417E-1,2.329156494E-1,1.606309662E0,9.770482178E0,9.904382990E0
2.289030416E-1,2.026785278E-1,1.576970673E0,9.776320038E0,9.904763933E0
2.389270416E-1,2.005828857E-1,1.569935303E0,9.801916809E0,9.928872216E0
2.489520417E-1,1.755848694E-1,1.571581879E0,9.815538483E0,9.942107189E0
2.589770416E-1,1.851649475E-1,1.559307404E0,9.797426147E0,9.922463643E0
2.690010417E-1,2.600093079E-1,1.567091217E0,9.780960388E0,9.909115290E0
2.790260417E-1,3.610491943E-1,1.563498688E0,9.840237122E0,9.970213201E0
2.890510416E-1,4.906796265E-1,1.531614990E0,9.918075256E0,1.004762797E1
2.990750417E-1,6.053411865E-1,1.502874756E0,9.976154480E0,1.010686542E1
3.091000416E-1,6.221063232E-1,1.492845612E0,9.976453857E0,1.010669263E1
3.191240416E-1,5.372328186E-1,1.487007751E0,9.868977356E0,9.994824921E0
3.291490417E-1,4.074526978E-1,1.486708374E0,9.681417389E0,9.803375039E0
3.391740416E-1,3.161425781E-1,1.474284210E0,9.568402405E0,9.686474314E0
3.491980417E-1,3.141966248E-1,1.510059814E0,9.570048981E0,9.693546186E0
3.592230417E-1,3.653901672E-1,1.573976898E0,9.603279877E0,9.738269746E0
3.692480417E-1,3.344046021E-1,1.609153748E0,9.595346375E0,9.735084708E0
3.792720417E-1,2.990780640E-1,1.626817017E0,9.573791199E0,9.715629635E0
3.892970416E-1,3.294648743E-1,1.614243164E0,9.624685364E0,9.764675952E0
3.993220417E-1,4.923262024E-1,1.621278534E0,9.669142914E0,9.816478690E0
4.093460417E-1,6.664141846E-1,1.633553009E0,9.713301086E0,9.872224739E0
4.193710416E-1,6.259982300E-1,1.559457092E0,9.626631317E0,9.772195798E0
4.293960417E-1,5.451663208E-1,1.514849854E0,9.551337891E0,9.686074122E0
4.394200417E-1,4.959187317E-1,1.502575378E0,9.549541626E0,9.679742425E0
4.494450417E-1,4.670288086E-1,1.474284210E0,9.614506531E0,9.738088399E0
4.594690417E-1,5.056484985E-1,1.490450592E0,9.724228363E0,9.850773606E0
4.694940416E-1,5.466632080E-1,1.486259308E0,9.842332764E0,9.968917776E0
4.795190417E-1,6.325845337E-1,1.474134521E0,9.938582611E0,1.006720716E1
4.895430417E-1,6.697073364E-1,1.438807983E0,1.002704865E1,1.015186588E1
4.995680416E-1,7.303312683E-1,1.392853546E0,1.008228378E1,1.020420850E1
5.095940417E-1,7.948471069E-1,1.389261017E0,1.002016296E1,1.014719143E1
5.196180416E-1,8.147557068E-1,1.340163116E0,9.939181366E0,1.006216628E1
5.296430417E-1,7.539820862E-1,1.316811676E0,9.787846069E0,9.904767168E0
5.396680416E-1,5.924679565E-1,1.226100311E0,9.726473694E0,9.821335488E0
5.496920416E-1,4.977149963E-1,1.150956573E0,9.999356232E0,1.007767564E1
5.597170417E-1,5.899232483E-1,1.256636810E0,1.000354752E1,1.009941129E1
5.697420416E-1,7.162605286E-1,1.275347900E0,9.962832184E0,1.006963587E1
5.797660417E-1,7.105723572E-1,1.285975800E0,9.950707397E0,1.005858959E1
5.897910417E-1,5.360353088E-1,1.409169617E0,9.811945953E0,9.927103115E0
5.998160416E-1,2.032772827E-1,1.467847595E0,9.956994324E0,1.006665953E1
6.098400417E-1,-2.574645996E-2,1.545835419E0,1.011820908E1,1.023564482E1
6.198650416E-1,1.242416382E-1,1.559906158E0,9.791588287E0,9.915843101E0
6.298890417E-1,4.189787292E-1,1.534608765E0,9.501042480E0,9.633295150E0
6.399140417E-1,6.475534058E-1,1.474284210E0,9.364676056E0,9.502104871E0
6.499390416E-1,8.885522461E-1,1.517095184E0,9.336684265E0,9.500777650E0
6.599630417E-1,9.217831421E-1,1.451531525E0,9.214687958E0,9.373745361E0
6.699880417E-1,8.039781189E-1,1.455423431E0,9.151968384E0,9.301782812E0
6.800130417E-1,7.237449646E-1,1.444795532E0,9.138795776E0,9.280561898E0
6.900370417E-1,4.920268250E-1,1.374292145E0,9.292975159E0,9.406920676E0
7.000620416E-1,1.416055298E-1,1.376088409E0,9.591005402E0,9.690255727E0
7.100870417E-1,1.032852173E-2,1.464105377E0,1.001507355E1,1.012153197E1
7.201110417E-1,2.993774414E-2,1.537153473E0,1.023122406E1,1.034609505E1
7.301360416E-1,2.477348328E-1,1.665586395E0,1.025158173E1,1.038895945E1
7.401600417E-1,4.004173279E-1,1.547481995E0,1.009785141E1,1.022358243E1
7.501850416E-1,5.126838684E-1,1.522334290E0,9.866732025E0,9.996636799E0
7.602100417E-1,5.104385376E-1,1.450034637E0,9.677824860E0,9.799155166E0
7.702340417E-1,4.102967834E-1,1.349144440E0,9.680219879E0,9.782391889E0
7.802590416E-1,4.593946838E-1,1.294358368E0,9.780361633E0,9.876329315E0
7.902840417E-1,5.078938293E-1,1.285526733E0,9.902657318E0,9.998657764E0
8.003080417E-1,4.936734009E-1,1.275946655E0,9.959539032E0,1.005306774E1
8.103330416E-1,4.975653076E-1,1.356479187E0,9.959389343E0,1.006364959E1
8.203580417E-1,4.770579529E-1,1.413660278E0,9.908794556E0,1.002049047E1
8.303820416E-1,4.896318054E-1,1.447639618E0,9.845625916E0,9.963520936E0
8.404070417E-1,4.993615723E-1,1.512454834E0,9.762548676E0,9.891624652E0
8.504320417E-1,3.832031250E-1,1.514700165E0,9.618697815E0,9.744768282E0
8.604560416E-1,3.043171692E-1,1.497635651E0,9.503886566E0,9.625974306E0
8.704810417E-1,2.998265076E-1,1.470841370E0,9.522747345E0,9.640331284E0
8.805050417E-1,3.070115662E-1,1.459315338E0,9.624236298E0,9.739085258E0
8.905300417E-1,3.604504395E-1,1.487007751E0,9.818831635E0,9.937332199E0
9.005550417E-1,3.427871704E-1,1.435664520E0,9.919572144E0,1.002878593E1
9.105790416E-1,3.520678711E-1,1.422940979E0,1.001447479E1,1.012118660E1
9.206040417E-1,3.526666260E-1,1.452729034E0,1.001372635E1,1.012469806E1
9.306290417E-1,3.415896606E-1,1.423090668E0,9.945019226E0,1.005212803E1
9.406530416E-1,4.114942932E-1,1.417701874E0,9.910441132E0,1.001978291E1
9.506780417E-1,4.323010254E-1,1.448088684E0,9.862989807E0,9.978096660E0
9.607030416E-1,3.700305176E-1,1.442849579E0,9.814041595E0,9.926436920E0
9.707270417E-1,3.092568970E-1,1.432371368E0,9.737850037E0,9.847489574E0
9.807520417E-1,3.701802063E-1,1.426234131E0,9.758207703E0,9.868829452E0
9.907770416E-1,3.902384949E-1,1.449286194E0,9.797725525E0,9.912020077E0
1.000801042E0,3.978726196E-1,1.487007751E0,9.858050079E0,9.977507005E0
1.010826042E0,3.917353821E-1,1.492396545E0,9.832453308E0,9.952780622E0
1.020850042E0,3.878434753E-1,1.499581604E0,9.762398987E0,9.884513216E0
1.030875042E0,4.921765137E-1,1.476679230E0,9.465117188E0,9.592250134E0
1.040900042E0,5.590873718E-1,1.515298920E0,9.441915436E0,9.579064495E0
1.050924042E0,5.414241028E-1,1.566043396E0,9.648785248E0,9.790030068E0
1.060949042E0,4.409829712E-1,1.532064056E0,9.555379486E0,9.687464239E0
1.070974042E0,3.773652649E-1,1.445543976E0,9.621242523E0,9.736545056E0
1.080998042E0,3.570075989E-1,1.384321289E0,9.841584320E0,9.944877163E0
1.091023042E0,3.909869385E-1,1.428329773E0,9.888287201E0,9.998560921E0
1.101048042E0,4.167333984E-1,1.404828644E0,9.856702881E0,9.965028948E0
1.111072042E0,4.164340210E-1,1.426383820E0,9.849667511E0,9.961121331E0
1.121097042E0,4.331991577E-1,1.493743744E0,9.782756653E0,9.905617578E0
1.131121042E0,4.772076416E-1,1.525477753E0,9.708511047E0,9.839207095E0
1.141146042E0,4.905299377E-1,1.557511139E0,9.661658478E0,9.798678743E0
1.151171042E0,4.430786133E-1,1.547781372E0,9.638756104E0,9.772285559E0
1.161195042E0,4.354444885E-1,1.495989075E0,9.757908325E0,9.881516589E0
1.171220042E0,3.650907898E-1,1.508113861E0,1.001686981E1,1.013633955E1
1.181245042E0,2.951861572E-1,1.513652344E0,9.927655334E0,1.004672179E1
1.191269042E0,3.008743286E-1,1.482816467E0,9.961185608E0,1.007543988E1
1.201294042E0,3.637435913E-1,1.540746002E0,9.820478210E0,9.947260926E0
1.211319042E0,3.695814514E-1,1.541045380E0,9.653275909E0,9.782491865E0
1.221343042E0,3.752696228E-1,1.534159698E0,9.624535675E0,9.753264081E0
1.231368042E0,4.076023865E-1,1.580862579E0,9.556576996E0,9.695020891E0
1.241392042E0,4.090992737E-1,1.585951996E0,9.673184509E0,9.810866654E0
1.251417042E0,4.043092346E-1,1.586101685E0,9.744735718E0,9.881247832E0
1.261442042E0,3.481759644E-1,1.578467560E0,9.754016418E0,9.887043169E0
1.271466042E0,2.574645996E-1,1.548080750E0,9.692793732E0,9.819016873E0
1.281491042E0,2.128573608E-1,1.484463043E0,9.636361084E0,9.752353240E0
1.291516042E0,2.417472839E-1,1.510658569E0,9.627978516E0,9.748769223E0
1.301540042E0,3.528163147E-1,1.557062073E0,9.710457001E0,9.840828055E0
1.311565042E0,4.339476013E-1,1.607207794E0,9.800868988E0,9.941250441E0
1.321590042E0,4.468208313E-1,1.649270325E0,9.880204010E0,1.002687253E1
1.331614042E0,4.320016479E-1,1.621577911E0,9.950258331E0,1.009077704E1
1.341639042E0,3.884422302E-1,1.579964447E0,9.732610931E0,9.867668953E0
1.351663042E0,4.364923096E-1,1.528321838E0,9.664801941E0,9.794625554E0
1.361688042E0,4.688250732E-1,1.599723358E0,9.817484436E0,9.958007452E0
1.371713042E0,3.363505554E-1,1.609752502E0,9.784702606E0,9.921937306E0
1.381737042E0,3.055146790E-1,1.583556976E0,9.674382019E0,9.807887610E0
1.391762042E0,3.650907898E-1,1.610201569E0,9.748627625E0,9.887455736E0
1.401787042E0,3.670367432E-1,1.624871063E0,9.727970581E0,9.869566027E0
1.411811042E0,3.429368591E-1,1.601819000E0,9.607022095E0,9.745681265E0
1.421836042E0,3.758683777E-1,1.625320129E0,9.655072174E0,9.798130498E0
1.431861042E0,3.734733582E-1,1.655856628E0,9.699978790E0,9.847381990E0
1.441885042E0,3.664379883E-1,1.651665344E0,9.720785522E0,9.866911694E0
1.451910042E0,3.999682617E-1,1.632654877E0,9.763596497E0,9.907237410E0
1.461934042E0,4.053570557E-1,1.639690247E0,9.798174591E0,9.942691978E0
1.471959042E0,3.852987671E-1,1.629212036E0,9.791139221E0,9.933236846E0
1.481984042E0,3.460803223E-1,1.641336823E0,9.755812683E0,9.898971626E0
1.492008042E0,3.040177917E-1,1.630409546E0,9.708960114E0,9.849597382E0
1.502033042E0,3.736230469E-1,1.641187134E0,9.674082642E0,9.819417719E0
1.512057542E0,3.909869385E-1,1.638792114E0,9.839039612E0,9.982244781E0
1.522081542E0,3.457809448E-1,1.650318146E0,9.763297119E0,9.907829484E0
1.532106542E0,3.382965088E-1,1.587897949E0,9.703571320E0,9.838453170E0
1.542130542E0,4.541555786E-1,1.578766937E0,9.826914825E0,9.963283461E0
1.552155542E0,5.014572144E-1,1.630110168E0,9.942175140E0,1.008739635E1
1.562180542E0,3.878434753E-1,1.676962738E0,9.934690704E0,1.008269339E1
1.572204542E0,3.373983765E-1,1.681453400E0,9.881551208E0,1.002926605E1
1.582229542E0,3.941304016E-1,1.693129120E0,9.760153656E0,9.913759346E0
1.592254542E0,3.823049927E-1,1.654509430E0,9.637109528E0,9.785572983E0
1.602278542E0,3.429368591E-1,1.611698456E0,9.627379761E0,9.767375219E0
1.612303542E0,3.299139404E-1,1.660646667E0,9.626930695E0,9.774680821E0
1.622328542E0,3.119512939E-1,1.717827759E0,9.591005402E0,9.748621976E0
1.632352542E0,2.513273621E-1,1.710343323E0,9.526938629E0,9.682509973E0
1.642377542E0,2.802172852E-1,1.686692505E0,9.503736877E0,9.656317516E0
1.652401542E0,3.881428528E-1,1.724563751E0,9.608668671E0,9.769917534E0
1.662426542E0,4.171824646E-1,1.768721924E0,9.526040497E0,9.697827901E0
1.672451542E0,3.582051086E-1,1.745520172E0,9.555529175E0,9.720251508E0
1.682475542E0,3.327580261E-1,1.726509705E0,9.649982758E0,9.808859816E0
1.692500542E0,3.236270142E-1,1.628463593E0,9.658065948E0,9.799738057E0
1.702525542E0,3.879931641E-1,1.610800323E0,9.770482178E0,9.909971663E0
1.712549542E0,4.321513367E-1,1.636995850E0,9.861492920E0,1.000577597E1
1.722574542E0,4.480183411E-1,1.670825500E0,9.844578094E0,9.995403751E0
1.732599542E0,3.926335144E-1,1.700763245E0,9.722731476E0,9.878171088E0
1.742623542E0,3.342549133E-1,1.707199860E0,9.594148865E0,9.750587169E0
1.752648542E0,3.748205566E-1,1.677411804E0,9.571845245E0,9.724938160E0
1.762672542E0,4.644841003E-1,1.687291260E0,9.749525757E0,9.905349553E0
1.772697542E0,4.320016479E-1,1.706451416E0,9.746981049E0,9.904657562E0
1.782722542E0,3.603007507E-1,1.661245422E0,9.747729492E0,9.894836191E0
1.792746542E0,3.013233948E-1,1.657054138E0,9.826615448E0,9.969904481E0
1.802771542E0,3.234773254E-1,1.634600830E0,9.773026886E0,9.914061326E0
1.812796542E0,3.641926575E-1,1.610950012E0,9.730066223E0,9.869244396E0
1.822820542E0,3.878434753E-1,1.613345032E0,9.779164124E0,9.918939243E0
1.832845542E0,3.814068604E-1,1.641336823E0,9.794731750E0,9.938623035E0
1.842869542E0,3.661386108E-1,1.686991882E0,9.805209961E0,9.956010319E0
1.852894542E0,3.495231628E-1,1.707798615E0,9.793234863E0,9.947170032E0
1.862919542E0,3.309617615E-1,1.692380676E0,9.756411438E0,9.907636054E0
1.872943542E0,3.611988831E-1,1.689386902E0,9.715696106E0,9.868092195E0
1.882968542E0,3.597019958E-1,1.713187408E0,9.688303070E0,9.845182223E0
1.892993542E0,3.444337463E-1,1.698218536E0,9.671238556E0,9.825244832E0
1.903017542E0,3.779640198E-1,1.660197601E0,9.705966339E0,9.854181623E0
1.913042542E0,4.168830872E-1,1.674268341E0,9.764494629E0,9.915761259E0
1.923067542E0,4.035607910E-1,1.668729858E0,9.780810699E0,9.930346348E0
1.933091542E0,3.694317627E-1,1.655407562E0,9.784103851E0,9.930032336E0
1.943116542E0,3.832031250E-1,1.656605072E0,9.759255524E0,9.906273435E0
1.953140542E0,4.053570557E-1,1.701511688E0,9.761500854E0,9.916973092E0
1.963165542E0,3.516188049E-1,1.689087524E0,9.719288635E0,9.871232143E0
1.973190542E0,3.606001282E-1,1.669777679E0,9.695937195E0,9.845272370E0
1.983214542E0,4.119433594E-1,1.678010559E0,9.751920776E0,9.903806117E0
1.993239542E0,4.261637878E-1,1.697470093E0,9.767039337E0,9.922604381E0
2.003264542E0,4.126918030E-1,1.698817291E0,9.726773071E0,9.882631689E0
2.013288542E0,3.920347595E-1,1.724114685E0,9.697583771E0,9.857453712E0
2.023313542E0,3.623963928E-1,1.691632233E0,9.713450775E0,9.866310188E0
2.033337542E0,3.872447205E-1,1.678908691E0,9.747430115E0,9.898539625E0
2.043362542E0,4.152365112E-1,1.687890015E0,9.758956146E0,9.912548569E0
2.053387542E0,3.838018799E-1,1.665885773E0,9.746531982E0,9.895320357E0
2.063411542E0,3.827540588E-1,1.657652893E0,9.735305328E0,9.882837832E0
2.073436542E0,3.974235535E-1,1.686243439E0,9.732161865E0,9.885157408E0
2.083461542E0,4.372407532E-1,1.739532623E0,9.704768829E0,9.869128191E0
2.093485542E0,4.499642944E-1,1.775457916E0,9.673334198E0,9.845207625E0
2.103510542E0,4.231700134E-1,1.773362274E0,9.634864197E0,9.805839827E0
2.113535542E0,4.345463562E-1,1.749112701E0,9.700577545E0,9.866581500E0
2.123559542E0,4.755610657E-1,1.712888031E0,9.814640350E0,9.974332506E0
2.133584542E0,4.604425049E-1,1.690285034E0,9.846074982E0,1.000071314E1
2.143608542E0,4.340972900E-1,1.668131104E0,9.750423889E0,9.901609357E0
2.153633542E0,3.616479492E-1,1.658251648E0,9.634564819E0,9.782915058E0
2.163658542E0,3.760180664E-1,1.661993866E0,9.616602173E0,9.766404177E0
2.173682542E0,4.411326599E-1,1.676813049E0,9.691296844E0,9.845178239E0
2.183707542E0,4.586462402E-1,1.678908691E0,9.748777313E0,9.902916231E0
2.193732542E0,4.423301697E-1,1.714833984E0,9.775272217E0,9.934397741E0
2.203756542E0,3.908372498E-1,1.723665619E0,9.727671204E0,9.886928945E0
2.213781542E0,3.707789612E-1,1.713486786E0,9.695039063E0,9.852273668E0
2.223805542E0,3.983216858E-1,1.686692505E0,9.736802216E0,9.889838682E0
2.233830542E0,3.921844482E-1,1.716181183E0,9.777966614E0,9.935175771E0
2.243855542E0,3.791615295E-1,1.701511688E0,9.776469727E0,9.930672978E0
2.253879542E0,3.968247986E-1,1.689237213E0,9.743089142E0,9.896402291E0
2.263904542E0,4.212240601E-1,1.716330872E0,9.727371826E0,9.886606294E0
2.273929542E0,3.980223083E-1,1.719923401E0,9.708061981E0,9.867270428E0
2.283953542E0,3.971241760E-1,1.746717682E0,9.710007935E0,9.873853572E0
2.293978542E0,3.805087280E-1,1.727108459E0,9.733509064E0,9.892870626E0
2.304002542E0,3.421884155E-1,1.692979431E0,9.754914551E0,9.906645757E0
2.314027542E0,3.513194275E-1,1.672621765E0,9.758507080E0,9.907045440E0
2.324052542E0,3.951782227E-1,1.700164490E0,9.733958130E0,9.889219686E0
2.334076542E0,3.888912964E-1,1.731299744E0,9.714049530E0,9.874785745E0
2.344101542E0,3.692820740E-1,1.742077332E0,9.693242798E0,9.855463389E0
2.354126542E0,3.713777161E-1,1.744472351E0,9.676178284E0,9.839183471E0
2.364150542E0,3.719764709E-1,1.721420288E0,9.680070190E0,9.838974194E0
2.374175542E0,3.498225403E-1,1.719474335E0,9.732910309E0,9.889818546E0
2.384200542E0,3.445834351E-1,1.698667603E0,9.765841827E0,9.918461371E0
2.394224542E0,3.752696228E-1,1.713187408E0,9.771529999E0,9.927670266E0
2.404249542E0,3.899391174E-1,1.736389160E0,9.749525757E0,9.910618160E0
2.414273542E0,3.731739807E-1,1.735341339E0,9.745334473E0,9.905665670E0
2.424298542E0,3.415896606E-1,1.740730133E0,9.701325989E0,9.862177794E0
2.434323542E0,2.848576355E-1,1.738035736E0,9.644144897E0,9.803644368E0
2.444347542E0,2.787203979E-1,1.695823517E0,9.610315247E0,9.762769156E0
2.454372542E0,3.236270142E-1,1.707948303E0,9.616153107E0,9.772012199E0
2.464397542E0,3.373983765E-1,1.712888031E0,9.630822601E0,9.787776410E0
2.474421542E0,3.511697388E-1,1.745370483E0,9.705217896E0,9.867162343E0
2.484446542E0,3.338058472E-1,1.790875854E0,9.750274200E0,9.918997412E0
2.494470542E0,3.270698547E-1,1.758243713E0,9.703271942E0,9.866705733E0
2.504495542E0,3.570075989E-1,1.740430756E0,9.661957855E0,9.823949472E0
2.514520792E0,3.249742126E-1,1.717977448E0,9.654473419E0,9.811519340E0
2.524544792E0,3.311114502E-1,1.723216553E0,9.707912292E0,9.865225348E0
2.534569792E0,3.400927734E-1,1.732497253E0,9.757159882E0,9.915612880E0
2.544594792E0,3.504212952E-1,1.709145813E0,9.776320038E0,9.930780834E0
2.554618792E0,3.534150696E-1,1.722318420E0,9.771829376E0,9.928742736E0
2.564643792E0,3.549119568E-1,1.726360016E0,9.779463501E0,9.937011008E0
2.574667792E0,3.671864319E-1,1.731449432E0,9.753267975E0,9.912566731E0
2.584692792E0,3.222798157E-1,1.733395386E0,9.681417389E0,9.840648683E0
2.594717792E0,2.969824219E-1,1.721420288E0,9.616302795E0,9.773677190E0
2.604741792E0,3.140469360E-1,1.701212311E0,9.585466919E0,9.740324679E0
2.614766792E0,3.103047180E-1,1.711540833E0,9.592502289E0,9.748936414E0
2.624791792E0,3.140469360E-1,1.728305969E0,9.643845520E0,9.802521278E0
2.634815792E0,3.245251465E-1,1.741179199E0,9.670490112E0,9.831347852E0
2.644840792E0,3.140469360E-1,1.741179199E0,9.683812408E0,9.844112618E0
2.654864792E0,3.257226562E-1,1.742975464E0,9.685009918E0,9.845987804E0
2.664889792E0,3.478765869E-1,1.758842468E0,9.738299103E0,9.901970226E0
2.674914792E0,3.215313721E-1,1.725611572E0,9.742939453E0,9.899797317E0
2.684938792E0,2.880010986E-1,1.706750793E0,9.766141205E0,9.918339424E0
2.694963792E0,2.829116821E-1,1.675615540E0,9.742041321E0,9.889140284E0
2.704988792E0,3.132984924E-1,1.685644684E0,9.737101593E0,9.886895437E0
2.715012792E0,2.942880249E-1,1.687291260E0,9.740993500E0,9.890425249E0
2.725037792E0,3.167413330E-1,1.726809082E0,9.703122253E0,9.860668139E0
2.735061792E0,3.489244080E-1,1.751657410E0,9.701176300E0,9.864221892E0
2.745086792E0,3.095562744E-1,1.759890289E0,9.694589996E0,9.857896029E0
2.755111792E0,3.138972473E-1,1.714833984E0,9.724677429E0,9.879703345E0
2.765135792E0,3.353027344E-1,1.691183167E0,9.756112061E0,9.907282724E0
2.775160792E0,3.490740967E-1,1.697619781E0,9.791139221E0,9.943348173E0
2.785185792E0,3.299139404E-1,1.679657135E0,9.787995758E0,9.936546294E0
2.795209792E0,3.763174438E-1,1.696422272E0,9.799821167E0,9.952685982E0
2.805234792E0,3.698808289E-1,1.721420288E0,9.804910583E0,9.961745389E0
2.815259792E0,3.396437073E-1,1.740580444E0,9.752968597E0,9.912889316E0
2.825283792E0,3.278182983E-1,1.726659393E0,9.717642059E0,9.875291626E0
2.835308792E0,3.179388428E-1,1.733096008E0,9.720037079E0,9.878452697E0
2.845332792E0,3.121009827E-1,1.750010834E0,9.751322021E0,9.912024319E0
2.855357792E0,3.252735901E-1,1.750609589E0,9.733958130E0,9.895472587E0
2.865382792E0,3.396437073E-1,1.741328888E0,9.701176300E0,9.862069040E0
2.875406792E0,3.195854187E-1,1.733545074E0,9.639055481E0,9.798913406E0
2.885431792E0,3.466790771E-1,1.730700989E0,9.569450226E0,9.730873030E0
2.895456792E0,3.754193115E-1,1.736389160E0,9.545500031E0,9.709405636E0
2.905480792E0,3.920347595E-1,1.778900757E0,9.596693573E0,9.768045183E0
2.915505792E0,4.074526978E-1,1.792821808E0,9.673483887E0,9.846650103E0
2.925529792E0,3.977229309E-1,1.773362274E0,9.758806458E0,9.926595628E0
2.935554792E0,3.561094666E-1,1.745220795E0,9.777966614E0,9.938875222E0
2.945579792E0,3.185375977E-1,1.711540833E0,9.802515564E0,9.955910285E0
2.955603792E0,3.173400879E-1,1.698368225E0,9.806557159E0,9.957596230E0
2.965628792E0,3.242257690E-1,1.682351532E0,9.816586304E0,9.964978459E0
2.975653792E0,2.987786865E-1,1.684297485E0,9.780062256E0,9.928531838E0
2.985677792E0,3.020718384E-1,1.705403595E0,9.729916534E0,9.882860142E0
2.995702792E0,3.550616455E-1,1.746717682E0,9.690698090E0,9.853259405E0
3.005726792E0,3.933819580E-1,1.810185699E0,9.639205170E0,9.815589536E0
3.015751792E0,3.818559265E-1,1.811981964E0,9.598789215E0,9.775778587E0
3.025776792E0,3.567082214E-1,1.806144104E0,9.605674896E0,9.780510595E0
3.035800792E0,3.294648743E-1,1.767524414E0,9.633217621E0,9.799569959E0
3.045825792E0,3.251239014E-1,1.718127136E0,9.724078674E0,9.880049214E0
3.055850792E0,3.171903992E-1,1.712139587E0,9.751920776E0,9.906159223E0
3.065874792E0,3.474275208E-1,1.723366241E0,9.800270233E0,9.956705968E0
3.075899792E0,3.607498169E-1,1.744472351E0,9.800419922E0,9.961001700E0
3.085923792E0,3.661386108E-1,1.743424530E0,9.772278442E0,9.933328371E0
3.095948792E0,3.863465881E-1,1.735341339E0,9.757459259E0,9.918098832E0
3.105973792E0,3.891906738E-1,1.715881805E0,9.805060272E0,9.961672886E0
3.115997792E0,3.833528137E-1,1.724713440E0,9.808203735E0,9.966065239E0
3.126022792E0,3.864962769E-1,1.723665619E0,9.798923035E0,9.956871757E0
3.136047792E0,3.490740967E-1,1.765578461E0,9.767039337E0,9.931474082E0
3.146071792E0,2.963836670E-1,1.755699005E0,9.681118011E0,9.843493700E0
3.156096792E0,3.007246399E-1,1.743274841E0,9.660610657E0,9.821244358E0
3.166120792E0,3.156935120E-1,1.753753052E0,9.677525482E0,9.840214003E0
3.176145792E0,3.403921509E-1,1.764979706E0,9.699978790E0,9.865120816E0
3.186170792E0,3.359014893E-1,1.771865387E0,9.702373810E0,9.868555837E0
3.196194792E0,3.305126953E-1,1.782792664E0,9.714348907E0,9.882113287E0
3.206219792E0,3.387455750E-1,1.757794647E0,9.713001709E0,9.876588115E0
3.216244792E0,3.510200500E-1,1.726509705E0,9.680818634E0,9.839832329E0
3.226268792E0,3.697311401E-1,1.684746552E0,9.700278168E0,9.852434653E0
3.236293792E0,3.763174438E-1,1.707948303E0,9.755363617E0,9.910894083E0
3.246317792E0,3.644920349E-1,1.717528381E0,9.805808716E0,9.961759019E0
3.256342792E0,3.655398560E-1,1.732497253E0,9.818831635E0,9.977205059E0
3.266367792E0,3.444337463E-1,1.743274841E0,9.781409454E0,9.941509578E0
3.276391792E0,3.071612549E-1,1.742077332E0,9.718989258E0,9.878660519E0
3.286416792E0,2.883004761E-1,1.730551300E0,9.681417389E0,9.839093842E0
3.296441792E0,3.062631226E-1,1.745969238E0,9.709708557E0,9.870189762E0
3.306465792E0,2.950364685E-1,1.745220795E0,9.711804199E0,9.871777091E0
3.316490792E0,2.939886475E-1,1.734892273E0,9.670041046E0,9.828833825E0
3.326514792E0,3.052153015E-1,1.740580444E0,9.668394470E0,9.828561863E0
3.336539792E0,3.297642517E-1,1.746567993E0,9.661658478E0,9.823791974E0
3.346564792E0,3.487747192E-1,1.746567993E0,9.656119995E0,9.819001829E0
3.356588792E0,3.564088440E-1,1.721569977E0,9.697583771E0,9.855656317E0
3.366613792E0,3.480262756E-1,1.723216553E0,9.780511322E0,9.937253106E0
3.376638792E0,3.586541748E-1,1.701661377E0,9.853110352E0,1.000540193E1
3.386662792E0,3.568579102E-1,1.699715424E0,9.846973114E0,9.998962926E0
3.396687792E0,3.400927734E-1,1.723515930E0,9.824070740E0,9.979906621E0
3.406711792E0,3.070115662E-1,1.706152039E0,9.750573578E0,9.903478984E0
3.416736792E0,2.749781799E-1,1.681902466E0,9.714199219E0,9.862559271E0
3.426761792E0,3.044668579E-1,1.701362000E0,9.669741669E0,9.822995300E0
3.436785792E0,3.770658875E-1,1.722168732E0,9.649084625E0,9.808816337E0
3.446810792E0,3.920347595E-1,1.736089783E0,9.692045288E0,9.854107816E0
3.456835792E0,3.206332397E-1,1.718276825E0,9.732760620E0,9.888473604E0
3.466859792E0,3.373983765E-1,1.740131378E0,9.727521515E0,9.887697897E0
3.476884792E0,3.134481812E-1,1.726958771E0,9.706116028E0,9.863535102E0
3.486908792E0,3.254232788E-1,1.713636475E0,9.676627350E0,9.832576831E0
3.496933792E0,3.471281433E-1,1.724713440E0,9.673483887E0,9.832162779E0
3.506958792E0,3.323089600E-1,1.721120911E0,9.669142914E0,9.826749774E0
3.516986167E0,3.541635132E-1,1.755549316E0,9.664502563E0,9.829038356E0
3.527011167E0,3.733236694E-1,1.725910950E0,9.663454742E0,9.823466635E0
3.537036167E0,4.038601685E-1,1.749711456E0,9.714049530E0,9.878631053E0
3.547060167E0,4.010160828E-1,1.773212585E0,9.745633850E0,9.913751859E0
3.557085167E0,3.861968994E-1,1.761536865E0,9.780211945E0,9.945084507E0
3.567109167E0,3.367996216E-1,1.737436981E0,9.759405212E0,9.918574058E0
3.577134167E0,2.995271301E-1,1.728305969E0,9.742041321E0,9.898693203E0
3.587159167E0,3.236270142E-1,1.739083557E0,9.720336456E0,9.879984154E0
3.597183167E0,3.677851868E-1,1.718576202E0,9.727970581E0,9.885453036E0
3.607208167E0,3.911366272E-1,1.719174957E0,9.741592255E0,9.899857072E0
3.617233167E0,3.848497009E-1,1.758243713E0,9.752968597E0,9.917657320E0
3.627257167E0,3.764671326E-1,1.741478577E0,9.703571320E0,9.865787930E0
3.637282167E0,3.749702454E-1,1.749861145E0,9.694140930E0,9.857940205E0
3.647306167E0,3.637435913E-1,1.753753052E0,9.679621124E0,9.843933374E0
3.657331167E0,3.588038635E-1,1.760189667E0,9.686057739E0,9.851229487E0
3.667356167E0,3.468287659E-1,1.759441223E0,9.685758362E0,9.850372513E0
3.677380167E0,2.977308655E-1,1.742376709E0,9.709708557E0,9.869293821E0
3.687405167E0,2.897973633E-1,1.730102234E0,9.720037079E0,9.877062168E0
3.697430167E0,3.579057312E-1,1.745819550E0,9.739795990E0,9.901495258E0
3.707454167E0,3.730242920E-1,1.777403870E0,9.743388519E0,9.911202322E0
3.717479167E0,3.535647583E-1,1.785936127E0,9.691596222E0,9.861116226E0
3.727503167E0,3.561094666E-1,1.795067139E0,9.676178284E0,9.847715784E0
3.737528167E0,3.543132019E-1,1.773661652E0,9.694440308E0,9.861723297E0
3.747553167E0,2.918930054E-1,1.746717682E0,9.654623108E0,9.815700257E0
3.757577167E0,2.745291138E-1,1.733994141E0,9.635912018E0,9.794534309E0
3.767602167E0,3.302133179E-1,1.734443207E0,9.644144897E0,9.804430880E0
3.777627167E0,3.799099731E-1,1.762884064E0,9.680818634E0,9.847351991E0
3.787651167E0,4.504133606E-1,1.815424805E0,9.731712799E0,9.909837205E0
3.797676167E0,4.257147217E-1,1.822759552E0,9.725725250E0,9.904212086E0
3.807700167E0,3.701802063E-1,1.824256439E0,9.652078400E0,9.829931962E0
3.817725167E0,3.933819580E-1,1.792372742E0,9.630373535E0,9.803644416E0
3.827750167E0,3.700305176E-1,1.739532623E0,9.649533691E0,9.812053648E0
3.837774167E0,3.246748352E-1,1.744921417E0,9.678124237E0,9.839525052E0
3.847799167E0,3.330574036E-1,1.709894257E0,9.727371826E0,9.882126707E0
3.857824167E0,3.628454590E-1,1.706152039E0,9.787696381E0,9.941911891E0
3.867848167E0,3.300636292E-1,1.669777679E0,9.889784088E0,1.003518454E1
3.877873167E0,3.869453430E-1,1.777852936E0,1.006327332E1,1.022643426E1
3.887897167E0,3.134481812E-1,1.828148346E0,9.711654510E0,9.887194216E0
3.897922167E0,2.700384521E-1,1.596579895E0,9.671388245E0,9.806005237E0
3.907947167E0,3.523672485E-1,1.877096558E0,9.524543610E0,9.714143562E0
3.917971167E0,3.736230469E-1,1.697470093E0,9.557624817E0,9.714380631E0
3.927996167E0,3.832031250E-1,1.797611847E0,9.688901825E0,9.861697195E0
3.938021167E0,3.474275208E-1,1.776805115E0,9.801018677E0,9.966830459E0
3.948045167E0,3.258723450E-1,1.739083557E0,9.832902374E0,9.990824466E0
3.958070167E0,3.200344849E-1,1.715133362E0,9.764794006E0,9.919440836E0
3.968094167E0,3.159928894E-1,1.727407837E0,9.719438324E0,9.876804679E0
3.978119167E0,3.456312561E-1,1.735341339E0,9.710906067E0,9.870793644E0
3.988144167E0,3.571572876E-1,1.778451691E0,9.687255249E0,9.855626109E0
3.998168167E0,3.112028503E-1,1.767524414E0,9.703721008E0,9.868292212E0
4.008193167E0,2.999761963E-1,1.775457916E0,9.701325989E0,9.867013858E0
4.018218167E0,3.489244080E-1,1.768721924E0,9.712702332E0,9.878598689E0
4.028242167E0,3.468287659E-1,1.750310211E0,9.751022644E0,9.912936933E0
4.038267167E0,3.189866638E-1,1.741328888E0,9.786648560E0,9.945474791E0
4.048291167E0,2.887495422E-1,1.723815308E0,9.748927002E0,9.904367380E0
4.058316167E0,3.393443298E-1,1.762434998E0,9.677675171E0,9.842699244E0
4.068341167E0,3.659889221E-1,1.789528656E0,9.627080383E0,9.798828369E0
4.078365167E0,3.603007507E-1,1.767374725E0,9.606423340E0,9.774292784E0
4.088390167E0,3.433859253E-1,1.785636749E0,9.625583496E0,9.795829221E0
4.098414167E0,3.281176758E-1,1.755998383E0,9.704469452E0,9.867518375E0
4.108439167E0,3.195854187E-1,1.737736359E0,9.788295135E0,9.946486020E0
4.118464167E0,2.966830444E-1,1.725312195E0,9.821526031E0,9.976326808E0
4.128488167E0,2.860551453E-1,1.722917175E0,9.810748444E0,9.964991528E0
4.138513167E0,3.339555359E-1,1.741328888E0,9.803713074E0,9.962757782E0
4.148538167E0,3.261717224E-1,1.729353790E0,9.782756653E0,9.939787737E0
4.158562167E0,3.327580261E-1,1.715133362E0,9.793085175E0,9.947709665E0
4.168587167E0,3.556604004E-1,1.780846710E0,9.823022919E0,9.989478895E0
4.178611167E0,3.471281433E-1,1.790726166E0,9.804162140E0,9.972401587E0
4.188636167E0,3.463796997E-1,1.792223053E0,9.782157898E0,9.951012788E0
4.198661167E0,2.899470520E-1,1.795067139E0,9.717043304E0,9.885710187E0
4.208685167E0,2.881507874E-1,1.761536865E0,9.640252991E0,9.804107340E0
4.218710167E0,3.073109436E-1,1.768123169E0,9.580676880E0,9.747310862E0
4.228735167E0,3.002755737E-1,1.804946594E0,9.562115479E0,9.735607328E0
4.238759167E0,3.716770935E-1,1.785487061E0,9.601483612E0,9.773156883E0
4.248784167E0,3.829037476E-1,1.775906982E0,9.640252991E0,9.809940806E0
4.258808167E0,3.622467041E-1,1.801803131E0,9.692494354E0,9.865199643E0
4.268833167E0,3.103047180E-1,1.774260406E0,9.748178558E0,9.913186885E0
4.278858167E0,2.974314880E-1,1.763632507E0,9.786349182E0,9.948441859E0
4.288882167E0,2.947370911E-1,1.735491028E0,9.820627899E0,9.977150465E0
4.298907167E0,2.999761963E-1,1.723366241E0,9.877060547E0,1.003076777E1
4.308932167E0,3.150947571E-1,1.741029510E0,9.858050079E0,1.001556887E1
4.318956167E0,3.252735901E-1,1.747166748E0,9.800868988E0,9.960694126E0
4.328981167E0,3.112028503E-1,1.750759277E0,9.738448792E0,9.899464133E0
4.339005167E0,2.930905151E-1,1.775457916E0,9.668993225E0,9.835018193E0
4.349030167E0,3.329077148E-1,1.790127411E0,9.612111511E0,9.783050209E0
4.359055167E0,3.538641357E-1,1.790576477E0,9.600136414E0,9.772103310E0
4.369079167E0,3.628454590E-1,1.817670135E0,9.646539917E0,9.822999232E0
4.379104167E0,3.436853027E-1,1.820813599E0,9.703721008E0,9.879052746E0
4.389129167E0,2.939886475E-1,1.779349823E0,9.706714783E0,9.872832774E0
4.399153167E0,3.109034729E-1,1.749711456E0,9.713151398E0,9.874384093E0
4.409178167E0,3.486250305E-1,1.743274841E0,9.760602722E0,9.921185014E0
4.419202167E0,3.221301270E-1,1.778451691E0,9.744286652E0,9.910488413E0
4.429227167E0,3.222798157E-1,1.822460175E0,9.679621124E0,9.854962733E0
4.439252167E0,2.832110596E-1,1.814676361E0,9.665400696E0,9.838355015E0
4.449276167E0,2.790197754E-1,1.790576477E0,9.683662720E0,9.851768360E0
4.459301167E0,3.420387268E-1,1.783840485E0,9.752818909E0,9.920511783E0
4.469326167E0,3.212319946E-1,1.859882355E0,9.760902100E0,9.941708212E0
4.479350167E0,2.505789185E-1,1.851799164E0,9.703721008E0,9.882011503E0
4.489375167E0,2.607577515E-1,1.841919708E0,9.601483612E0,9.780038362E0
4.499399167E0,2.906954956E-1,1.828896790E0,9.552236023E0,9.730086350E0
4.509424167E0,2.951861572E-1,1.830094299E0,9.591454468E0,9.768949730E0
4.519445583E0,2.874023438E-1,1.839973755E0,9.662706299E0,9.840528265E0
4.529469583E0,3.050656128E-1,1.797162781E0,9.690997467E0,9.860947774E0
4.539494583E0,3.347039795E-1,1.771715698E0,9.713301086E0,9.879231816E0
4.549518583E0,3.230282593E-1,1.766177216E0,9.765542450E0,9.929226987E0
4.559543583E0,2.694396973E-1,1.773511963E0,9.783804474E0,9.946897628E0
4.569568583E0,2.662962341E-1,1.795067139E0,9.751022644E0,9.918448584E0
4.579592583E0,3.212319946E-1,1.805545349E0,9.730066223E0,9.901382364E0
4.589617583E0,3.430865479E-1,1.812880096E0,9.788893890E0,9.961259269E0
4.599642583E0,3.079096985E-1,1.822759552E0,9.830657043E0,1.000295350E1
4.609666583E0,2.935395813E-1,1.858684845E0,9.804760895E0,9.983697263E0
4.619691583E0,2.935395813E-1,1.847757568E0,9.712552643E0,9.891109764E0
4.629715583E0,2.877017212E-1,1.838925934E0,9.671837311E0,9.849307480E0
4.639740583E0,2.832110596E-1,1.830842743E0,9.622440033E0,9.799160466E0
4.649765583E0,3.276686096E-1,1.832639008E0,9.572294312E0,9.751653749E0
4.659789583E0,3.260220337E-1,1.836530914E0,9.580976257E0,9.760852535E0
4.669814583E0,2.872526550E-1,1.818119202E0,9.585466919E0,9.760596681E0
4.679839583E0,3.086581421E-1,1.823358307E0,9.618697815E0,9.794858499E0
4.689863583E0,2.883004761E-1,1.817071381E0,9.646240540E0,9.820123325E0
4.699888583E0,3.134481812E-1,1.799557800E0,9.637109528E0,9.808697064E0
4.709912583E0,3.743714905E-1,1.817969513E0,9.675280151E0,9.851711180E0
4.719937583E0,3.778143311E-1,1.845362549E0,9.732311554E0,9.912920598E0
4.729962583E0,3.534150696E-1,1.849404144E0,9.760752411E0,9.940698443E0
4.739986583E0,3.468287659E-1,1.813179474E0,9.778116302E0,9.950852648E0
4.750011583E0,3.538641357E-1,1.843865662E0,9.785900116E0,9.964381641E0
4.760036583E0,3.281176758E-1,1.824256439E0,9.795031128E0,9.968861899E0
4.770060583E0,3.098556519E-1,1.802850952E0,9.787097626E0,9.956583853E0
4.780085583E0,3.451821899E-1,1.780098267E0,9.775421906E0,9.942171494E0
4.790109583E0,3.418890381E-1,1.822609863E0,9.774673462E0,9.949021867E0
4.800134583E0,3.390449524E-1,1.851350098E0,9.731263733E0,9.911606454E0
4.810159583E0,3.320095825E-1,1.841171265E0,9.680369568E0,9.859497805E0
4.820183583E0,3.144960022E-1,1.794169006E0,9.647887115E0,9.818333665E0
4.830208583E0,2.977308655E-1,1.764081573E0,9.671687622E0,9.835759702E0
4.840233583E0,3.397933960E-1,1.810634766E0,9.688303070E0,9.861900130E0
4.850257583E0,4.080514526E-1,1.860630798E0,9.670340424E0,9.856162380E0
4.860282583E0,3.909869385E-1,1.882036285E0,9.634265442E0,9.824154008E0
4.870306583E0,3.354524231E-1,1.922152863E0,9.576186218E0,9.772949526E0
4.880331583E0,3.456312561E-1,1.891167297E0,9.563462677E0,9.754783088E0
4.890356583E0,3.406915283E-1,1.880988464E0,9.547296295E0,9.736788735E0
4.900380583E0,3.242257690E-1,1.863474884E0,9.535321198E0,9.721111630E0
4.910405583E0,3.161425781E-1,1.812730408E0,9.594597931E0,9.769454801E0
4.920430583E0,3.318598938E-1,1.794318695E0,9.725725250E0,9.895425317E0
4.930454583E0,3.270698547E-1,1.783241730E0,9.771829376E0,9.938590198E0
4.940479583E0,3.817062378E-1,1.802401886E0,9.771230621E0,9.943404853E0
4.950503583E0,4.203259277E-1,1.856439514E0,9.768985291E0,9.952693865E0
4.960528583E0,4.141886902E-1,1.868863678E0,9.798324280E0,9.983554598E0
4.970553583E0,3.885919189E-1,1.870210876E0,9.840686188E0,1.002436018E1
4.980577583E0,3.570075989E-1,1.852846985E0,9.797725525E0,9.977771386E0
4.990602583E0,3.562591553E-1,1.843416595E0,9.719588013E0,9.899267471E0
5.000627583E0,3.525169373E-1,1.832189941E0,9.693093109E0,9.871030453E0
5.010651583E0,4.020639038E-1,1.844614105E0,9.664801941E0,9.847469377E0
5.020676583E0,4.070036316E-1,1.854343872E0,9.657766571E0,9.842596115E0
5.030700583E0,4.105961609E-1,1.873054962E0,9.629475403E0,9.818539638E0
5.040725583E0,3.884422302E-1,1.871558075E0,9.580527191E0,9.769345846E0
5.050750583E0,3.623963928E-1,1.821711731E0,9.566306763E0,9.744957150E0
5.060774583E0,3.872447205E-1,1.829495544E0,9.640702057E0,9.820394522E0
5.070799583E0,3.947291565E-1,1.827998657E0,9.724976807E0,9.903159298E0
5.080823583E0,4.349954224E-1,1.846859436E0,9.791737976E0,9.973878051E0
5.090848583E0,4.528083801E-1,1.858834534E0,9.841883698E0,1.002611470E1
5.100873583E0,4.481680298E-1,1.843416595E0,9.868827667E0,1.004951734E1
5.110897583E0,4.547543335E-1,1.846859436E0,9.861941986E0,1.004368414E1
5.120922583E0,4.484674072E-1,1.867965546E0,9.798024902E0,9.984573615E0
5.130947583E0,4.028123474E-1,1.883832550E0,9.682914276E0,9.872685133E0
5.140971583E0,3.638932800E-1,1.888472900E0,9.586963806E0,9.777966212E0
5.150996583E0,3.613485718E-1,1.867666168E0,9.538464661E0,9.726307510E0
5.161020583E0,3.454815674E-1,1.871258698E0,9.524842987E0,9.713063397E0
5.171045583E0,3.522175598E-1,1.847158813E0,9.521699524E0,9.705607385E0
5.181070583E0,3.426374817E-1,1.845063171E0,9.602681122E0,9.784331519E0
5.191094583E0,3.329077148E-1,1.817520447E0,9.678872681E0,9.853668580E0
5.201119583E0,3.698808289E-1,1.828747101E0,9.780361633E0,9.956736487E0
5.211144583E0,3.861968994E-1,1.843566284E0,9.808802490E0,9.988017370E0
5.221168583E0,3.817062378E-1,1.860181732E0,9.820478210E0,1.000238812E1
5.231193583E0,3.475772095E-1,1.852547607E0,9.804012451E0,9.983556616E0
5.241217583E0,3.365002441E-1,1.839824066E0,9.767039337E0,9.944508154E0
5.251242583E0,3.592529297E-1,1.851200409E0,9.725725250E0,9.906853045E0
5.261267583E0,3.273692322E-1,1.845661926E0,9.675579529E0,9.855479581E0
5.271291583E0,2.944377136E-1,1.865271149E0,9.699230347E0,9.881346029E0
5.281316583E0,2.769241333E-1,1.892813873E0,9.730365601E0,9.916624731E0
5.291341583E0,2.529739380E-1,1.912123718E0,9.689799957E0,9.879900614E0
5.301365583E0,2.767744446E-1,1.900148621E0,9.584868164E0,9.775319258E0
5.311390583E0,3.222798157E-1,1.896556091E0,9.539961548E0,9.731991349E0
5.321414583E0,2.887495422E-1,1.877695312E0,9.550739136E0,9.737850585E0
5.331439583E0,2.863545227E-1,1.837429047E0,9.612710266E0,9.790931676E0
5.341464583E0,2.974314880E-1,1.838776245E0,9.691895599E0,9.869265620E0
5.351488583E0,3.210823059E-1,1.830393677E0,9.747280426E0,9.922847906E0
5.361513583E0,3.719764709E-1,1.863325195E0,9.772877197E0,9.955876455E0
5.371537583E0,3.344046021E-1,1.883383484E0,9.752519531E0,9.938339750E0
5.381562583E0,3.156935120E-1,1.892813873E0,9.708810425E0,9.896636126E0
5.391587583E0,3.239263916E-1,1.871857452E0,9.703870697E0,9.888067816E0
5.401611583E0,2.935395813E-1,1.843566284E0,9.703122253E0,9.881066926E0
5.411636583E0,2.698887634E-1,1.802102509E0,9.718091125E0,9.887452074E0
5.421661583E0,2.927911377E-1,1.797761536E0,9.738448792E0,9.907323456E0
5.431685583E0,3.242257690E-1,1.795815582E0,9.732910309E0,9.902505695E0
5.441710583E0,3.466790771E-1,1.853595428E0,9.698481903E0,9.880108988E0
5.451734583E0,3.758683777E-1,1.880838776E0,9.659263458E0,9.847852664E0
5.461759583E0,3.894900513E-1,1.926044769E0,9.656269684E0,9.854181608E0
5.471784583E0,3.400927734E-1,1.923200684E0,9.652078400E0,9.847689140E0
5.481808583E0,3.269201660E-1,1.898651733E0,9.664801941E0,9.854955695E0
5.491833583E0,2.715353394E-1,1.877545624E0,9.735754395E0,9.918861963E0
5.501858583E0,2.442919922E-1,1.844464417E0,9.754315796E0,9.930176444E0
5.511882583E0,2.713856506E-1,1.852248230E0,9.730664978E0,9.909102613E0
5.521907792E0,2.859054565E-1,1.855541382E0,9.676327972E0,9.856779331E0
5.531931792E0,3.385958862E-1,1.870210876E0,9.597591705E0,9.783971711E0
5.541956792E0,3.620970154E-1,1.894460449E0,9.605974274E0,9.797695463E0
5.551981792E0,3.730242920E-1,1.863175507E0,9.595795441E0,9.782119414E0
5.562005792E0,4.016148376E-1,1.887574768E0,9.619446259E0,9.811115090E0
5.572030792E0,3.728746033E-1,1.863175507E0,9.664053497E0,9.849080588E0
5.582055792E0,3.692820740E-1,1.823208618E0,9.692793732E0,9.869686380E0
5.592079792E0,3.558100891E-1,1.842668152E0,9.766739960E0,9.945412821E0
5.602104792E0,3.254232788E-1,1.851499786E0,9.748328247E0,9.927933087E0
5.612128792E0,3.192860413E-1,1.816921692E0,9.704319763E0,9.878105591E0
5.622153792E0,2.947370911E-1,1.816921692E0,9.718689880E0,9.891461337E0
5.632178792E0,2.794688416E-1,1.845811615E0,9.756112061E0,9.933118639E0
5.642202792E0,3.296145630E-1,1.872156830E0,9.778415680E0,9.961477308E0
5.652227792E0,3.788621521E-1,1.922452240E0,9.748927002E0,9.943889422E0
5.662252792E0,3.126997375E-1,1.925146637E0,9.683063965E0,9.877535039E0
5.672276792E0,3.011737061E-1,1.872306519E0,9.680070190E0,9.864076044E0
5.682301792E0,3.300636292E-1,1.878593445E0,9.656569061E0,9.843138796E0
5.692325792E0,3.176394653E-1,1.841919708E0,9.613907776E0,9.793915752E0
5.702350792E0,3.362008667E-1,1.855840759E0,9.593849487E0,9.777480449E0
5.712375792E0,3.525169373E-1,1.873354340E0,9.617799683E0,9.804886303E0
5.722399792E0,3.433859253E-1,1.858385468E0,9.675729218E0,9.858562082E0
5.732424792E0,3.418890381E-1,1.847009125E0,9.733509064E0,9.913098886E0
5.742449792E0,3.433859253E-1,1.831441498E0,9.726473694E0,9.903352077E0
5.752473792E0,3.260220337E-1,1.820514221E0,9.704469452E0,9.879134058E0
5.762498792E0,3.170407104E-1,1.847607880E0,9.703271942E0,9.882694778E0
5.772522792E0,3.525169373E-1,1.847458191E0,9.738448792E0,9.918404853E0
5.782547792E0,3.742218018E-1,1.855391693E0,9.793085175E0,9.974318900E0
5.792572792E0,3.391946411E-1,1.840871887E0,9.799821167E0,9.976991391E0
5.802596792E0,3.134481812E-1,1.824555817E0,9.697434082E0,9.872562052E0
5.812621792E0,3.311114502E-1,1.868713989E0,9.583520966E0,9.769626444E0
5.822645792E0,3.204835510E-1,1.842368774E0,9.535770264E0,9.717404331E0
5.832670792E0,3.423381042E-1,1.837429047E0,9.626481628E0,9.806247469E0
5.842695792E0,3.276686096E-1,1.829196167E0,9.732461243E0,9.908285784E0
5.852719792E0,3.255729675E-1,1.821861420E0,9.802515564E0,9.975694872E0
5.862744792E0,3.532653809E-1,1.834135895E0,9.806856537E0,9.983150106E0
5.872769792E0,3.150947571E-1,1.857187958E0,9.752519531E0,9.932777508E0
5.882793792E0,3.010240173E-1,1.866618347E0,9.659712524E0,9.843014049E0
5.892818792E0,3.215313721E-1,1.875150604E0,9.611512756E0,9.797997228E0
5.902842792E0,3.393443298E-1,1.868264923E0,9.630523224E0,9.815933270E0
5.912867792E0,3.436853027E-1,1.866468658E0,9.660460968E0,9.845117112E0
5.922892792E0,3.638932800E-1,1.866618347E0,9.669591980E0,9.854830868E0
5.932916792E0,3.674858093E-1,1.858984222E0,9.703421631E0,9.886721373E0
5.942941792E0,3.411405945E-1,1.828747101E0,9.764644318E0,9.940270193E0
5.952966792E0,3.356021118E-1,1.831291809E0,9.809401245E0,9.984518579E0
5.962990792E0,3.481759644E-1,1.818717957E0,9.776320038E0,9.950145476E0
5.973015792E0,3.448828125E-1,1.819466400E0,9.725725250E0,9.900461291E0
5.983039792E0,3.381468201E-1,1.854792938E0,9.698332214E0,9.879891085E0
5.993064792E0,3.367996216E-1,1.855092316E0,9.672885132E0,9.854923047E0
6.003089792E0,3.347039795E-1,1.855242004E0,9.660610657E0,9.842832311E0
6.013113792E0,3.637435913E-1,1.845212860E0,9.637708282E0,9.819497993E0
6.023138792E0,3.649411011E-1,1.838776245E0,9.660610657E0,9.840816955E0
6.033163792E0,3.415896606E-1,1.831740875E0,9.669292603E0,9.847191354E0
6.043187792E0,3.766168213E-1,1.844614105E0,9.707014160E0,9.887899946E0
6.053212792E0,3.632945251E-1,1.829794922E0,9.722581787E0,9.899935807E0
6.063236792E0,3.517684937E-1,1.842518463E0,9.743089142E0,9.922015994E0
6.073261792E0,3.519181824E-1,1.831591187E0,9.749525757E0,9.926319820E0
6.083286792E0,3.564088440E-1,1.826052704E0,9.759704590E0,9.935458189E0
6.093310792E0,3.529660034E-1,1.822160797E0,9.754465485E0,9.929473896E0
6.103335792E0,3.393443298E-1,1.831142120E0,9.736053772E0,9.912566726E0
6.113359792E0,3.538641357E-1,1.848356323E0,9.705666962E0,9.886435763E0
6.123384792E0,3.393443298E-1,1.846709747E0,9.653874664E0,9.834774400E0
6.133409792E0,3.673361206E-1,1.867965546E0,9.608518982E0,9.795298267E0
6.143433792E0,3.629951477E-1,1.872306519E0,9.619895325E0,9.807124106E0
6.153458792E0,3.324586487E-1,1.855990448E0,9.632618866E0,9.815425386E0
6.163483792E0,2.971321106E-1,1.855242004E0,9.600884857E0,9.783005695E0
6.173507792E0,2.893482971E-1,1.838925934E0,9.609267426E0,9.787920693E0
6.183532792E0,2.821632385E-1,1.827100525E0,9.638905792E0,9.814602248E0
6.193556792E0,3.296145630E-1,1.847757568E0,9.695338440E0,9.875345121E0
6.203581792E0,3.448828125E-1,1.826801147E0,9.730814667E0,9.906810822E0
6.213606792E0,3.372486877E-1,1.861079865E0,9.772128754E0,9.953484582E0
6.223630792E0,3.623963928E-1,1.842668152E0,9.779762878E0,9.958439588E0
6.233655792E0,3.448828125E-1,1.829495544E0,9.791588287E0,9.967005533E0
6.243680792E0,3.206332397E-1,1.813778229E0,9.793833618E0,9.965529292E0
6.253704792E0,2.869532776E-1,1.803000641E0,9.738299103E0,9.907957555E0
6.263729792E0,3.143463135E-1,1.786983948E0,9.672885132E0,9.841586864E0
6.273753792E0,3.420387268E-1,1.852248230E0,9.638007660E0,9.820336331E0
6.283778792E0,3.348536682E-1,1.866618347E0,9.609117737E0,9.794464493E0
6.293803792E0,3.457809448E-1,1.869163055E0,9.614805908E0,9.800909531E0
6.303827792E0,3.456312561E-1,1.882485352E0,9.659712524E0,9.847500095E0
6.313852792E0,3.104544067E-1,1.864373016E0,9.683213654E0,9.865946247E0
6.323877792E0,2.993774414E-1,1.860331421E0,9.679022369E0,9.860726843E0
6.333901792E0,3.255729675E-1,1.868115234E0,9.631870422E0,9.816760164E0
6.343926792E0,3.393443298E-1,1.866618347E0,9.618697815E0,9.804017864E0
6.353950792E0,3.469784546E-1,1.864522705E0,9.656119995E0,9.840604266E0
6.363975792E0,3.444337463E-1,1.856439514E0,9.699978790E0,9.882033738E0
6.374000792E0,3.441343689E-1,1.847308502E0,9.798024902E0,9.976586047E0
6.384024792E0,3.059637451E-1,1.821262665E0,9.842482452E0,1.001424347E1
6.394049792E0,2.764750671E-1,1.811981964E0,9.833052063E0,1.000243120E1
6.404074792E0,3.144960022E-1,1.800904999E0,9.757608948E0,9.927391346E0
6.414098792E0,3.614982605E-1,1.774709473E0,9.675579529E0,9.843633167E0
6.424123792E0,3.851490784E-1,1.815873871E0,9.624984741E0,9.802350177E0
6.434147792E0,3.867956543E-1,1.847607880E0,9.604327698E0,9.788073165E0
6.444172792E0,3.412902832E-1,1.826651459E0,9.611213379E0,9.789206159E0
6.454197792E0,3.622467041E-1,1.841470642E0,9.621092834E0,9.802431542E0
6.464221792E0,3.647914124E-1,1.865121460E0,9.611812134E0,9.797891780E0
6.474246792E0,3.451821899E-1,1.879042511E0,9.622589722E0,9.810412043E0
6.484271792E0,3.384461975E-1,1.874102783E0,9.643695831E0,9.829937760E0
6.494295792E0,3.448828125E-1,1.853595428E0,9.686207428E0,9.867997492E0
6.504320792E0,3.118016052E-1,1.851200409E0,9.739346924E0,9.918620957E0
6.514344417E0,2.920426941E-1,1.843117218E0,9.755363617E0,9.932244928E0
6.524369417E0,3.177891541E-1,1.830842743E0,9.783954163E0,9.958852050E0
6.534394417E0,3.475772095E-1,1.835333405E0,9.812993774E0,9.989199439E0
6.544418417E0,3.626957703E-1,1.842967529E0,9.793833618E0,9.972324427E0
6.554443417E0,3.288661194E-1,1.825603638E0,9.769134979E0,9.943690452E0
6.564468417E0,3.300636292E-1,1.811233521E0,9.707313538E0,9.880356521E0
6.574492417E0,3.177891541E-1,1.847308502E0,9.689500580E0,9.869141814E0
6.584517417E0,2.989283752E-1,1.841770020E0,9.686656494E0,9.864724477E0
6.594541417E0,2.996768188E-1,1.830243988E0,9.683363342E0,9.859367367E0
6.604566417E0,3.351530457E-1,1.870959320E0,9.605225830E0,9.791485055E0
6.614591417E0,3.658392334E-1,1.894161072E0,9.585616608E0,9.777818277E0
6.624615417E0,3.365002441E-1,1.876348114E0,9.582772522E0,9.770539589E0
6.634640417E0,3.438349915E-1,1.837578735E0,9.629026337E0,9.808825939E0
6.644665417E0,3.644920349E-1,1.823507996E0,9.689051514E0,9.865888459E0
6.654689417E0,3.526666260E-1,1.815873871E0,9.712253265E0,9.886841516E0
6.664714417E0,3.540138245E-1,1.794917450E0,9.726473694E0,9.897037181E0
6.674738417E0,3.719764709E-1,1.780547333E0,9.734257507E0,9.902751361E0
6.684763417E0,3.815565491E-1,1.797611847E0,9.782756653E0,9.953859627E0
6.694788417E0,3.613485718E-1,1.789678345E0,9.795180817E0,9.963889231E0
6.704812417E0,3.360511780E-1,1.786684570E0,9.814191284E0,9.981158385E0
6.714837417E0,3.650907898E-1,1.828896790E0,9.774074707E0,9.950411606E0
6.724862417E0,3.564088440E-1,1.813927917E0,9.738897858E0,9.912794421E0
6.734886417E0,3.475772095E-1,1.810485077E0,9.735005951E0,9.908027402E0
6.744911417E0,3.529660034E-1,1.817520447E0,9.726922760E0,9.901565126E0
6.754935417E0,3.815565491E-1,1.848356323E0,9.727671204E0,9.909066230E0
6.764960417E0,3.718267822E-1,1.815574493E0,9.721234589E0,9.896310819E0
6.774985417E0,3.755690002E-1,1.819017334E0,9.706265717E0,9.882381813E0
6.785009417E0,3.782633972E-1,1.821711731E0,9.672885132E0,9.850199166E0
6.795034417E0,3.775149536E-1,1.814676361E0,9.663754120E0,9.839904040E0
6.805058417E0,3.655398560E-1,1.836979980E0,9.702972565E0,9.882094486E0
6.815083417E0,3.809577942E-1,1.852697296E0,9.744136963E0,9.926017392E0
6.825108417E0,3.730242920E-1,1.845661926E0,9.754315796E0,9.934399414E0
6.835132417E0,3.658392334E-1,1.852248230E0,9.719438324E0,9.901118279E0
6.845157417E0,3.852987671E-1,1.841171265E0,9.683213654E0,9.864227969E0
6.855182417E0,3.866459656E-1,1.839824066E0,9.645492096E0,9.827001856E0
6.865206417E0,3.576063538E-1,1.827848969E0,9.641749878E0,9.819992610E0
6.875231417E0,3.469784546E-1,1.809736633E0,9.678573303E0,9.852427209E0
6.885255417E0,3.462300110E-1,1.801503754E0,9.727521515E0,9.898988121E0
6.895280417E0,3.549119568E-1,1.819316711E0,9.740544434E0,9.915345766E0
6.905305417E0,3.589535522E-1,1.827699280E0,9.736353149E0,9.912916067E0
6.915329417E0,3.692820740E-1,1.820963287E0,9.720785522E0,9.896764508E0
6.925354417E0,4.089495850E-1,1.861977997E0,9.705217896E0,9.890675216E0
6.935379417E0,4.192781067E-1,1.858235779E0,9.758956146E0,9.943141325E0
6.945403417E0,3.878434753E-1,1.833986206E0,9.759105835E0,9.937508474E0
6.955428417E0,3.571572876E-1,1.800755310E0,9.742789764E0,9.914243966E0
6.965452417E0,3.520678711E-1,1.813478851E0,9.713600464E0,9.887704046E0
6.975477417E0,3.761677551E-1,1.818268890E0,9.687404938E0,9.863742615E0
6.985502417E0,3.646417236E-1,1.829495544E0,9.642947388E0,9.821733648E0
6.995526417E0,3.522175598E-1,1.865720215E0,9.613309021E0,9.799014209E0
7.005551417E0,3.562591553E-1,1.862277374E0,9.653275909E0,9.837719928E0
7.015576417E0,3.448828125E-1,1.843266907E0,9.714348907E0,9.893692523E0
7.025600417E0,3.064128113E-1,1.815125427E0,9.733509064E0,9.906047033E0
7.035625417E0,3.614982605E-1,1.821861420E0,9.713151398E0,9.889144053E0
7.045649417E0,3.579057312E-1,1.829944611E0,9.732910309E0,9.909911042E0
7.055674417E0,3.637435913E-1,1.855840759E0,9.702822876E0,9.885404700E0
7.065699417E0,3.399430847E-1,1.872156830E0,9.641899567E0,9.827856315E0
7.075723417E0,3.372486877E-1,1.830992432E0,9.640851746E0,9.818976135E0
7.085748417E0,3.170407104E-1,1.849553833E0,9.682016144E0,9.862190467E0
7.095773417E0,3.394940186E-1,1.849703522E0,9.713600464E0,9.893972573E0
7.105797417E0,3.484753418E-1,1.854792938E0,9.722432098E0,9.903907199E0
7.115822417E0,3.652404785E-1,1.854044495E0,9.700128479E0,9.882478136E0
7.125846417E0,3.766168213E-1,1.836680603E0,9.673334198E0,9.853356300E0
7.135871417E0,3.698808289E-1,1.839225311E0,9.696985016E0,9.876795025E0
7.145896417E0,3.477268982E-1,1.845512238E0,9.752369843E0,9.931543030E0
7.155920417E0,2.953358459E-1,1.817670135E0,9.779014435E0,9.950892990E0
7.165945417E0,2.790197754E-1,1.815574493E0,9.765542450E0,9.936799390E0
7.175970417E0,3.323089600E-1,1.796564026E0,9.748627625E0,9.918357329E0
7.185994417E0,3.769161987E-1,1.812880096E0,9.697434082E0,9.872630239E0
7.196019417E0,3.876937866E-1,1.835034027E0,9.713600464E0,9.893012197E0
7.206043417E0,3.778143311E-1,1.843266907E0,9.697134705E0,9.877995649E0
7.216068417E0,3.662882996E-1,1.840422821E0,9.697134705E0,9.877031171E0
7.226093417E0,3.823049927E-1,1.825753326E0,9.710157623E0,9.887704151E0
7.236117417E0,3.797602844E-1,1.838476868E0,9.732910309E0,9.912303372E0
7.246142417E0,3.381468201E-1,1.850901031E0,9.709409180E0,9.890035618E0
7.256167417E0,3.046165466E-1,1.827549591E0,9.703122253E0,9.878426505E0
7.266191417E0,2.978805542E-1,1.810036011E0,9.669292603E0,9.841757090E0
7.276216417E0,3.236270142E-1,1.829345856E0,9.670190735E0,9.847021354E0
7.286240417E0,3.317102051E-1,1.820963287E0,9.686357117E0,9.861615139E0
7.296265417E0,3.381468201E-1,1.838776245E0,9.682315521E0,9.861170073E0
7.306290417E0,3.231779480E-1,1.852846985E0,9.701475677E0,9.882110921E0
7.316314417E0,3.270698547E-1,1.856738892E0,9.719887390E0,9.901043626E0
7.326339417E0,3.164419556E-1,1.832189941E0,9.754914551E0,9.930529361E0
7.336364417E0,2.939886475E-1,1.827399902E0,9.743238831E0,9.917485701E0
7.346388417E0,2.999761963E-1,1.854343872E0,9.694290619E0,9.874606196E0
7.356413417E0,3.453318787E-1,1.878593445E0,9.656718750E0,9.843809448E0
7.366437417E0,3.342549133E-1,1.880988464E0,9.610165558E0,9.798220553E0
7.376462417E0,3.191363525E-1,1.867067413E0,9.613758087E0,9.798578126E0
7.386487417E0,3.351530457E-1,1.883533173E0,9.667496338E0,9.854973882E0
7.396511417E0,3.269201660E-1,1.875000916E0,9.729168091E0,9.913587492E0
7.406536417E0,3.429368591E-1,1.873653717E0,9.766889648E0,9.950895304E0
7.416561417E0,3.438349915E-1,1.850152588E0,9.767338715E0,9.946969019E0
7.426585417E0,3.567082214E-1,1.851200409E0,9.787097626E0,9.967018794E0
7.436610417E0,3.408412170E-1,1.848506012E0,9.749376068E0,9.928921438E0
7.446634417E0,3.429368591E-1,1.840422821E0,9.719887390E0,9.898533868E0
7.456659417E0,3.418890381E-1,1.827848969E0,9.713301086E0,9.889698578E0
7.466684417E0,3.207829285E-1,1.845063171E0,9.715845795E0,9.894686417E0
7.476708417E0,3.207829285E-1,1.862576752E0,9.698930969E0,9.881364065E0
7.486733417E0,3.219804382E-1,1.872755585E0,9.643546143E0,9.828980979E0
7.496758417E0,3.029699707E-1,1.875150604E0,9.586365051E0,9.772736336E0
7.506782417E0,3.439846802E-1,1.891017609E0,9.557624817E0,9.748972520E0
7.516807417E0,3.356021118E-1,1.898951111E0,9.600884857E0,9.792631625E0
7.526831417E0,2.918930054E-1,1.910776520E0,9.635762329E0,9.827725276E0
7.536856417E0,3.029699707E-1,1.884880371E0,9.690249023E0,9.876512084E0
7.546881417E0,3.535647583E-1,1.876497803E0,9.745783539E0,9.931090012E0
7.556905417E0,3.354524231E-1,1.874102783E0,9.769434357E0,9.953222454E0
7.566930417E0,3.393443298E-1,1.897454224E0,9.736502838E0,9.925471003E0
7.576955417E0,3.402424622E-1,1.905088348E0,9.669891357E0,9.861639083E0
7.586979417E0,2.968327332E-1,1.886826324E0,9.616153107E0,9.804010599E0
7.597004417E0,2.781216431E-1,1.892215118E0,9.585616608E0,9.774552443E0
7.607028417E0,2.794688416E-1,1.874551849E0,9.626032562E0,9.810838413E0
7.617053417E0,2.963836670E-1,1.875599670E0,9.679920502E0,9.864409679E0
7.627078417E0,3.170407104E-1,1.894909515E0,9.694440308E0,9.882983849E0
7.637102417E0,3.517684937E-1,1.884431305E0,9.722731476E0,9.909910684E0
7.647127417E0,3.309617615E-1,1.904639282E0,9.716893616E0,9.907331024E0
7.657152417E0,2.896476746E-1,1.913919983E0,9.723479919E0,9.914285008E0
7.667176417E0,3.165916443E-1,1.911524963E0,9.668244781E0,9.860482499E0
7.677201417E0,3.357518005E-1,1.904489594E0,9.657018127E0,9.848746570E0
7.687225417E0,3.035687256E-1,1.923649750E0,9.636959839E0,9.831763691E0
7.697250417E0,2.797682190E-1,1.934577026E0,9.638007660E0,9.834228499E0
7.707275417E0,2.815644836E-1,1.909579010E0,9.652976532E0,9.844070626E0
7.717299417E0,2.796185303E-1,1.884880371E0,9.668394470E0,9.854380354E0
7.727324417E0,3.222798157E-1,1.889670410E0,9.695338440E0,9.883031215E0
7.737349417E0,2.915936279E-1,1.879790955E0,9.701026611E0,9.885775548E0
7.747373417E0,2.909948730E-1,1.894310760E0,9.713450775E0,9.900718016E0
7.757398417E0,2.947370911E-1,1.905687103E0,9.670190735E0,9.860583255E0
7.767422417E0,2.888992310E-1,1.892963562E0,9.627230072E0,9.815820530E0
7.777447417E0,2.627037048E-1,1.889820099E0,9.627230072E0,9.814478697E0
7.787472417E0,2.950364685E-1,1.911225586E0,9.586664429E0,9.779773240E0
7.797496417E0,3.270698547E-1,1.899250488E0,9.608069916E0,9.799445628E0
7.807521417E0,3.417393494E-1,1.913171539E0,9.646090851E0,9.839922755E0
7.817546417E0,3.369493103E-1,1.925146637E0,9.660311279E0,9.856030561E0
7.827570417E0,3.164419556E-1,1.917512512E0,9.665101318E0,9.858558375E0
7.837595417E0,3.320095825E-1,1.926942902E0,9.642947388E0,9.839195782E0
7.847620417E0,3.438349915E-1,1.921554108E0,9.664502563E0,9.859675577E0
7.857644417E0,3.161425781E-1,1.926194458E0,9.678573303E0,9.873446835E0
7.867669417E0,3.140469360E-1,1.918859711E0,9.681118011E0,9.874446517E0
7.877693417E0,3.365002441E-1,1.898202667E0,9.678722992E0,9.868844134E0
7.887718417E0,3.730242920E-1,1.878892822E0,9.704020386E0,9.891278836E0
7.897743417E0,3.790118408E-1,1.898651733E0,9.729467468E0,9.920235158E0
7.907767417E0,3.568579102E-1,1.901795197E0,9.759105835E0,9.949086352E0
7.917792417E0,3.468287659E-1,1.902693329E0,9.807604980E0,9.996481759E0
7.927817417E0,3.290158081E-1,1.915865936E0,9.825417938E0,1.001586898E1
7.937841417E0,3.347039795E-1,1.898052979E0,9.760902100E0,9.949363882E0
7.947866417E0,3.457809448E-1,1.898502045E0,9.727072449E0,9.916643227E0
7.957890417E0,3.770658875E-1,1.924547882E0,9.722132721E0,9.917959865E0
7.967915417E0,4.147874451E-1,1.927691345E0,9.688303070E0,9.886923633E0
7.977940417E0,3.833528137E-1,1.947899323E0,9.649533691E0,9.851638017E0
7.987964417E0,3.522175598E-1,1.939666443E0,9.586814117E0,9.787408648E0
7.997989417E0,3.511697388E-1,1.919757843E0,9.549990692E0,9.747364392E0
8.008014417E0,3.686833191E-1,1.908231812E0,9.597591705E0,9.792397182E0
8.018038417E0,3.972738647E-1,1.929188232E0,9.679471436E0,9.877841922E0
8.028063417E0,3.864962769E-1,1.922601929E0,9.695787506E0,9.892121760E0
8.038087417E0,4.049079895E-1,1.924398193E0,9.699230347E0,9.896581642E0
8.048112417E0,3.905378723E-1,1.921853485E0,9.706265717E0,9.902405506E0
8.058137417E0,3.812571716E-1,1.932331696E0,9.724527740E0,9.921980779E0
8.068161417E0,3.927832031E-1,1.925595703E0,9.736802216E0,9.933152311E0
8.078186417E0,4.171824646E-1,1.935175781E0,9.751771088E0,9.950677658E0
8.088211417E0,3.935316467E-1,1.934876404E0,9.739795990E0,9.937919288E0
8.098235417E0,3.785627747E-1,1.932331696E0,9.664203186E0,9.862760201E0
8.108260417E0,4.354444885E-1,1.967059479E0,9.590855713E0,9.800175927E0
8.118284417E0,4.656816101E-1,1.965562592E0,9.537865906E0,9.749419557E0
8.128309417E0,4.441264343E-1,1.963916016E0,9.521849213E0,9.732411152E0
8.138334417E0,4.311035156E-1,1.940115509E0,9.574689331E0,9.778781837E0
8.148358417E0,4.514611816E-1,1.951940918E0,9.645492096E0,9.851365810E0
8.158383417E0,4.716691589E-1,1.918410645E0,9.723479919E0,9.922138527E0
8.168408417E0,4.745132446E-1,1.913021851E0,9.750423889E0,9.947642004E0
8.178432417E0,5.221142578E-1,1.912722473E0,9.745633850E0,9.945274742E0
8.188457417E0,5.429209900E-1,1.923799438E0,9.708660736E0,9.912308549E0
8.198481417E0,5.530998230E-1,1.922302551E0,9.688003693E0,9.892349673E0
8.208506417E0,5.481600952E-1,1.940265198E0,9.673184509E0,9.881073174E0
8.218531417E0,5.480104065E-1,1.943558350E0,9.668843536E0,9.877462721E0
8.228555417E0,5.406756592E-1,1.937271423E0,9.639055481E0,9.846661429E0
8.238580417E0,5.301974487E-1,1.951192474E0,9.617799683E0,9.828038062E0
8.248605417E0,5.159770203E-1,1.960473175E0,9.603579254E0,9.815213795E0
8.258629417E0,5.176235962E-1,1.971250763E0,9.561965790E0,9.776755777E0
8.268654417E0,4.694238281E-1,1.993105316E0,9.538764038E0,9.756067184E0
8.278679417E0,4.749623108E-1,1.970801697E0,9.553433533E0,9.766152814E0
8.288703417E0,4.945715332E-1,1.973945160E0,9.597442017E0,9.810808007E0
8.298728417E0,4.778063965E-1,1.941911774E0,9.714049530E0,9.917765805E0
8.308752417E0,4.965174866E-1,1.956431580E0,9.882299652E0,1.008632741E1
8.318777417E0,4.909790039E-1,1.956581268E0,1.001642075E1,1.021753176E1
8.328802417E0,4.495152283E-1,1.965263214E0,1.006761429E1,1.026748172E1
8.338826417E0,4.601431274E-1,1.955832825E0,1.002180954E1,1.022123672E1
8.348851417E0,4.520599365E-1,1.958227844E0,9.974507904E0,1.017496056E1
8.358876417E0,4.323010254E-1,1.958527222E0,9.929152222E0,1.012969777E1
8.368900417E0,4.339476013E-1,1.947599945E0,9.954748993E0,1.015275744E1
8.378925417E0,4.516108704E-1,1.935325470E0,9.910141754E0,1.010744016E1
8.388949417E0,4.433779907E-1,1.946701813E0,9.818831635E0,1.001976480E1
8.398974417E0,3.984713745E-1,1.928739166E0,9.661658478E0,9.860347801E0
8.408999417E0,3.665876770E-1,1.927391968E0,9.526788940E0,9.726712386E0
8.419023417E0,3.362008667E-1,1.921254730E0,9.386530609E0,9.587033307E0
8.429048417E0,3.224295044E-1,1.945653992E0,9.291627960E0,9.498625184E0
8.439073417E0,2.909948730E-1,1.953587494E0,9.270372162E0,9.478448298E0
8.449097417E0,1.948947144E-1,1.925745392E0,9.282646637E0,9.482299713E0
8.459122417E0,1.498384094E-1,1.899849243E0,9.348509674E0,9.540781510E0
8.469146417E0,1.959425354E-1,1.893562317E0,9.390871582E0,9.581880859E0
8.479171417E0,1.948947144E-1,1.882036285E0,9.436826019E0,9.624641804E0
8.489196417E0,1.898052979E-1,1.875599670E0,9.542206879E0,9.726644452E0
8.499220417E0,2.272274780E-1,1.870510254E0,9.654024353E0,9.836189666E0
8.509245417E0,2.070195007E-1,1.842967529E0,9.792636108E0,9.966699972E0
8.519270708E0,2.035766602E-1,1.808389435E0,9.892029419E0,1.005802972E1
8.529294708E0,1.790277100E-1,1.795815582E0,9.939031677E0,1.010155212E1
8.539319708E0,1.689985657E-1,1.771266632E0,9.853409729E0,1.001277331E1
8.549343708E0,1.962419128E-1,1.747316437E0,9.781559143E0,9.938336123E0
8.559368708E0,1.657054138E-1,1.733096008E0,9.751471710E0,9.905669113E0
8.569393708E0,2.103126526E-1,1.755399628E0,9.700876923E0,9.860662875E0
8.579417708E0,2.517764282E-1,1.795067139E0,9.680519257E0,9.848761875E0
8.589442708E0,2.439926147E-1,1.825603638E0,9.651329956E0,9.825504107E0
8.599467708E0,2.439926147E-1,1.862726440E0,9.613309021E0,9.795151480E0
8.609491708E0,2.011816406E-1,1.840871887E0,9.583520966E0,9.760796968E0
8.619516708E0,1.797761536E-1,1.801354065E0,9.586514740E0,9.755944895E0
8.629541708E0,2.207908630E-1,1.811083832E0,9.664951630E0,9.835652660E0
8.639565708E0,2.161505127E-1,1.823807373E0,9.718989258E0,9.890993205E0
8.649590708E0,2.004331970E-1,1.822609863E0,9.737850037E0,9.908975907E0
8.659614708E0,2.501298523E-1,1.851350098E0,9.782756653E0,9.959537633E0
8.669639708E0,2.709365845E-1,1.889969788E0,9.800868988E0,9.985110182E0
8.679664708E0,2.378553772E-1,1.888023834E0,9.765243073E0,9.948928658E0
8.689688708E0,2.456391907E-1,1.884281616E0,9.719887390E0,9.903891493E0
8.699713708E0,2.445913696E-1,1.852397919E0,9.687704315E0,9.866246393E0
8.709738708E0,2.427951050E-1,1.824106750E0,9.669591980E0,9.843135880E0
8.719762708E0,2.607577515E-1,1.800006866E0,9.702074432E0,9.871082393E0
8.729787708E0,2.999761963E-1,1.779948578E0,9.732910309E0,9.898875984E0
8.739811708E0,3.103047180E-1,1.781445465E0,9.749376068E0,9.915652812E0
8.749836708E0,3.179388428E-1,1.795815582E0,9.776769104E0,9.945413658E0
8.759861708E0,3.091072083E-1,1.797911224E0,9.743687897E0,9.912995807E0
8.769885708E0,2.939886475E-1,1.807491302E0,9.716294861E0,9.887357582E0
8.779910708E0,3.098556519E-1,1.852547607E0,9.738149414E0,9.917635664E0
8.789935708E0,3.049159241E-1,1.871857452E0,9.740245056E0,9.923164707E0
8.799959708E0,2.692900085E-1,1.879192200E0,9.704319763E0,9.888260843E0
8.809984708E0,2.381547546E-1,1.883832550E0,9.676178284E0,9.860728621E0
8.820008708E0,2.612068176E-1,1.896256714E0,9.684860229E0,9.872210299E0
8.830033708E0,2.776725769E-1,1.902992706E0,9.694889374E0,9.883792960E0
8.840058708E0,2.749781799E-1,1.905387726E0,9.738149414E0,9.926614196E0
8.850082708E0,2.927911377E-1,1.904040527E0,9.782606964E0,9.970481232E0
8.860107708E0,2.905458069E-1,1.898202667E0,9.761949921E0,9.949032942E0
8.870132708E0,2.903961182E-1,1.890418854E0,9.691296844E0,9.878220886E0
8.880156708E0,2.610571289E-1,1.864522705E0,9.659413147E0,9.841181742E0
8.890181708E0,2.606080627E-1,1.858684845E0,9.594897308E0,9.776741803E0
8.900206708E0,2.398013306E-1,1.847907257E0,9.594298553E0,9.773578190E0
8.910230708E0,2.234852600E-1,1.876647491E0,9.615853729E0,9.799816040E0
8.920255708E0,2.401007080E-1,1.875749359E0,9.639055481E0,9.822803804E0
8.930279708E0,2.839595032E-1,1.876797180E0,9.706265717E0,9.890126127E0
8.940304708E0,2.540217590E-1,1.878743134E0,9.749076691E0,9.931701724E0
8.950329708E0,2.320175171E-1,1.875000916E0,9.750274200E0,9.931631666E0
8.960353708E0,2.492317200E-1,1.838027802E0,9.723030853E0,9.898373181E0
8.970378708E0,2.850073242E-1,1.813478851E0,9.753267975E0,9.924523712E0
8.980403708E0,2.582130432E-1,1.829046478E0,9.782906342E0,9.955769256E0
8.990427708E0,2.278262329E-1,1.797312469E0,9.823172607E0,9.988841624E0
9.000452708E0,2.505789185E-1,1.810335388E0,9.842033386E0,1.001028097E1
9.010476708E0,2.439926147E-1,1.847308502E0,9.811047821E0,9.986427812E0
9.020501708E0,1.945953369E-1,1.815275116E0,9.730964355E0,9.900745345E0
9.030526708E0,1.983375549E-1,1.808688812E0,9.698930969E0,9.868128240E0
9.040550708E0,1.791773987E-1,1.812281342E0,9.705966339E0,9.875335477E0
9.050575708E0,1.835183716E-1,1.793420563E0,9.720785522E0,9.886541735E0
9.060600708E0,1.980381775E-1,1.798360291E0,9.759255524E0,9.925542163E0
9.070624708E0,2.137554932E-1,1.801952820E0,9.732910309E0,9.900619600E0
9.080649708E0,2.273771667E-1,1.804497528E0,9.720486145E0,9.889174010E0
9.090674708E0,2.089654541E-1,1.819316711E0,9.713001709E0,9.884127784E0
9.100698708E0,2.167492676E-1,1.829794922E0,9.716893616E0,9.890053146E0
9.110723708E0,2.055226135E-1,1.818418579E0,9.723330231E0,9.894040451E0
9.120747708E0,2.019300842E-1,1.833537140E0,9.731563110E0,9.904845015E0
9.130772708E0,1.950444031E-1,1.809437256E0,9.709259491E0,9.878351349E0
9.140797708E0,1.675016785E-1,1.807341614E0,9.676028595E0,9.844799129E0
9.150821708E0,1.549278259E-1,1.781445465E0,9.613159332E0,9.778056194E0
9.160846708E0,1.987866211E-1,1.803000641E0,9.631421356E0,9.800745113E0
9.170871708E0,2.359094238E-1,1.790426788E0,9.672436066E0,9.839578283E0
9.180895708E0,2.350112915E-1,1.795965271E0,9.734107819E0,9.901190665E0
9.190920708E0,1.942959595E-1,1.788480835E0,9.755662994E0,9.920149952E0
9.200944708E0,2.103126526E-1,1.782792664E0,9.760003967E0,9.923722010E0
9.210969708E0,2.119592285E-1,1.794618073E0,9.710457001E0,9.877173477E0
9.220994708E0,2.198927307E-1,1.798659668E0,9.653425598E0,9.822023987E0
9.231018708E0,2.327659607E-1,1.811981964E0,9.643396454E0,9.814914864E0
9.241043708E0,2.321672058E-1,1.803749084E0,9.679621124E0,9.848983576E0
9.251068708E0,2.225871277E-1,1.809287567E0,9.695637817E0,9.865518700E0
9.261092708E0,2.157014465E-1,1.799258423E0,9.669591980E0,9.837930018E0
9.271117708E0,2.435435486E-1,1.812131653E0,9.681866455E0,9.853003230E0
9.281142708E0,2.351609802E-1,1.830094299E0,9.694589996E0,9.868617990E0
9.291166708E0,2.357597351E-1,1.824106750E0,9.671837311E0,9.845170646E0
9.301191708E0,2.459385681E-1,1.827100525E0,9.633516998E0,9.808334816E0
9.311215708E0,2.257305908E-1,1.814376984E0,9.660161591E0,9.831665174E0
9.321240708E0,1.944456482E-1,1.788480835E0,9.691745911E0,9.857302451E0
9.331265708E0,2.276765442E-1,1.776505737E0,9.733359375E0,9.896771896E0
9.341289708E0,2.116598511E-1,1.775906982E0,9.742490387E0,9.905289720E0
9.351314708E0,1.893562317E-1,1.774110718E0,9.711804199E0,9.874333670E0
9.361339708E0,2.026785278E-1,1.799857178E0,9.673034821E0,9.841146635E0
9.371363708E0,1.956431580E-1,1.801653442E0,9.649384003E0,9.818087543E0
9.381388708E0,2.348616028E-1,1.818418579E0,9.617649994E0,9.790862960E0
9.391413708E0,2.662962341E-1,1.830543365E0,9.633067932E0,9.809067259E0
9.401437708E0,2.598596191E-1,1.837728424E0,9.645492096E0,9.822438117E0
9.411462708E0,2.761756897E-1,1.834884338E0,9.690398712E0,9.866453301E0
9.421486708E0,2.215393066E-1,1.822909241E0,9.720635834E0,9.892564823E0
9.431511708E0,2.197430420E-1,1.820214844E0,9.763746185E0,9.934395233E0
9.441536708E0,2.210902405E-1,1.796264648E0,9.772877197E0,9.939043027E0
9.451560708E0,2.158511353E-1,1.814376984E0,9.721833344E0,9.892047266E0
9.461585708E0,2.218386841E-1,1.820364532E0,9.676777039E0,9.849007731E0
9.471610708E0,2.269281006E-1,1.810634766E0,9.654922485E0,9.825854813E0
9.481634708E0,1.929487610E-1,1.814826050E0,9.641300812E0,9.812517728E0
9.491659708E0,1.850152588E-1,1.833237762E0,9.613309021E0,9.788294115E0
9.501683708E0,2.267784119E-1,1.819316711E0,9.645791473E0,9.818484348E0
9.511708708E0,2.447410583E-1,1.823507996E0,9.689201202E0,9.862337428E0
9.521736458E0,2.317181396E-1,1.828896790E0,9.687854004E0,9.861697215E0
9.531760458E0,2.751278687E-1,1.826501770E0,9.723928986E0,9.897807786E0
9.541785458E0,2.799179077E-1,1.830992432E0,9.715396729E0,9.890390332E0
9.551810458E0,2.287243652E-1,1.811981964E0,9.737999725E0,9.907786439E0
9.561834458E0,2.110610962E-1,1.805545349E0,9.718689880E0,9.887237925E0
9.571859458E0,2.642005920E-1,1.804347839E0,9.717342682E0,9.886972331E0
9.581884458E0,2.700384521E-1,1.814826050E0,9.721833344E0,9.893460361E0
9.591908458E0,2.763253784E-1,1.827250214E0,9.722282410E0,9.896361670E0
9.601933458E0,3.299139404E-1,1.848056946E0,9.764794006E0,9.943608986E0
9.611957458E0,3.019221497E-1,1.865420837E0,9.806557159E0,9.986967268E0
9.621982458E0,2.960842896E-1,1.827399902E0,9.851314087E0,1.002374409E1
9.632007458E0,2.821632385E-1,1.803898773E0,9.836195526E0,1.000421958E1
9.642031458E0,2.658471680E-1,1.803599396E0,9.779014435E0,9.947500631E0
9.652056458E0,2.703378296E-1,1.811233521E0,9.703571320E0,9.874864341E0
9.662081458E0,2.677931213E-1,1.846260681E0,9.629026337E0,9.808085432E0
9.672105458E0,2.381547546E-1,1.865869904E0,9.602082367E0,9.784588595E0
9.682130458E0,2.604583740E-1,1.832938385E0,9.610464935E0,9.787161895E0
9.692155458E0,2.838098145E-1,1.805695038E0,9.628726959E0,9.800686988E0
9.702179458E0,2.797682190E-1,1.814376984E0,9.649084625E0,9.822172275E0
9.712204458E0,2.806663513E-1,1.804647217E0,9.647887115E0,9.819228634E0
9.722228458E0,2.823129272E-1,1.816173248E0,9.641749878E0,9.815371952E0
9.732253458E0,2.508782959E-1,1.846110992E0,9.629475403E0,9.808050889E0
9.742278458E0,2.839595032E-1,1.854792938E0,9.634864197E0,9.815879886E0
9.752302458E0,3.001258850E-1,1.849404144E0,9.629625092E0,9.810201356E0
9.762327458E0,2.911445618E-1,1.840871887E0,9.661808167E0,9.839924365E0
9.772352458E0,3.197351074E-1,1.835632782E0,9.727970581E0,9.904806403E0
9.782376458E0,3.477268982E-1,1.834734650E0,9.765991516E0,9.942924898E0
9.792401458E0,3.194357300E-1,1.827100525E0,9.749226379E0,9.924099481E0
9.802426458E0,3.064128113E-1,1.790426788E0,9.721234589E0,9.889485266E0
9.812450458E0,3.390449524E-1,1.791923676E0,9.702224121E0,9.872137298E0
9.822475458E0,3.514691162E-1,1.804347839E0,9.721983032E0,9.894248619E0
9.832499458E0,3.469784546E-1,1.819915466E0,9.702822876E0,9.878120171E0
9.842524458E0,3.201841736E-1,1.800605621E0,9.657916260E0,9.829549582E0
9.852549458E0,2.948867798E-1,1.797162781E0,9.589957581E0,9.761354346E0
9.862573458E0,2.755769348E-1,1.770518188E0,9.493558044E0,9.661175997E0
9.872598458E0,3.177891541E-1,1.814975739E0,9.523645477E0,9.700255154E0
9.882623458E0,3.058140564E-1,1.803599396E0,9.534872131E0,9.708773330E0
9.892647458E0,3.680845642E-1,1.782642975E0,9.602830811E0,9.773825341E0
9.902672458E0,4.366419983E-1,1.786983948E0,9.708960114E0,9.881693901E0
9.912697458E0,4.297563171E-1,1.745819550E0,9.772727509E0,9.936738869E0
9.922721458E0,4.230203247E-1,1.731449432E0,9.830507355E0,9.990782661E0
9.932746458E0,3.703298950E-1,1.718725891E0,9.858349457E0,1.001390118E1
9.942770458E0,4.019142151E-1,1.732796631E0,9.845476227E0,1.000487488E1
9.952795458E0,4.111949158E-1,1.745969238E0,9.794282684E0,9.957181486E0
9.962820458E0,3.845503235E-1,1.764830017E0,9.681567078E0,9.848616401E0
9.972844458E0,3.683839417E-1,1.745819550E0,9.572444000E0,9.737313632E0
9.982869458E0,3.098556519E-1,1.753753052E0,9.494605865E0,9.660186377E0
9.992894458E0,2.532733154E-1,1.778751068E0,9.457483063E0,9.626634335E0
1.000291846E1,2.957849121E-1,1.762584686E0,9.412127380E0,9.580309771E0
1.001294346E1,2.218386841E-1,1.749711456E0,9.421108704E0,9.584779173E0
1.002296746E1,1.980381775E-1,1.759441223E0,9.450896759E0,9.615316016E0
1.003299246E1,2.040257263E-1,1.773511963E0,9.477241974E0,9.643914486E0
1.004301746E1,1.739382935E-1,1.801503754E0,9.575437775E0,9.744982241E0
1.005304146E1,1.794767761E-1,1.766775970E0,9.658664703E0,9.820565824E0
1.006306646E1,2.390528870E-1,1.728006592E0,9.712552643E0,9.867969999E0
1.007309146E1,3.167413330E-1,1.682201843E0,9.763746185E0,9.912661988E0
1.008311546E1,3.715274048E-1,1.639091492E0,9.805060272E0,9.948058126E0
1.009314046E1,3.631448364E-1,1.622176666E0,9.733059998E0,9.873995555E0
1.010316546E1,3.902384949E-1,1.622026978E0,9.680369568E0,9.823075515E0
1.011318946E1,3.918850708E-1,1.635948029E0,9.686207428E0,9.831201056E0
1.012321446E1,3.588038635E-1,1.650168457E0,9.673334198E0,9.819632919E0
1.013323946E1,3.709286499E-1,1.677112427E0,9.707463226E0,9.858252200E0
1.014326346E1,3.385958862E-1,1.754052429E0,9.759405212E0,9.921559212E0
1.015328846E1,3.245251465E-1,1.823807373E0,9.838141479E0,1.001102481E1
1.016331246E1,3.861968994E-1,1.840123444E0,9.942624207E0,1.011884274E1
1.017333746E1,4.125421143E-1,1.860331421E0,1.003453308E1,1.021385716E1
1.018336246E1,4.119433594E-1,1.846709747E0,1.013736923E1,1.031243372E1
1.019338646E1,4.454736328E-1,1.820065155E0,1.022628433E1,1.039653669E1
1.020341146E1,4.278103638E-1,1.821562042E0,1.032328262E1,1.049148579E1
1.021343646E1,4.764591980E-1,1.817221069E0,1.036010605E1,1.052905994E1
1.022346046E1,4.995112610E-1,1.816322937E0,1.036025574E1,1.053012058E1
1.023348546E1,4.638853455E-1,1.838776245E0,1.026864624E1,1.044228822E1
1.024350946E1,4.360432434E-1,1.865570526E0,1.013557297E1,1.031505339E1
1.025353446E1,3.829037476E-1,1.845212860E0,9.987381134E0,1.016362178E1
1.026355946E1,3.191363525E-1,1.858086090E0,9.873318329E0,1.005170367E1
1.027358346E1,2.900967407E-1,1.868414612E0,9.778415680E0,9.959545295E0
1.028360846E1,2.541714478E-1,1.831591187E0,9.696236572E0,9.870984402E0
1.029363346E1,2.430944824E-1,1.806892548E0,9.577084351E0,9.749076893E0
1.030365746E1,2.207908630E-1,1.785037994E0,9.438173218E0,9.608029087E0
1.031368246E1,1.689985657E-1,1.769470367E0,9.297914886E0,9.466298492E0
1.032370746E1,1.842668152E-1,1.770368500E0,9.201814728E0,9.372382470E0
1.033373146E1,2.236349487E-1,1.801354065E0,9.173224182E0,9.351092501E0
1.034375646E1,2.661465454E-1,1.870210876E0,9.183253326E0,9.375535417E0
1.035378146E1,3.620970154E-1,1.914219360E0,9.198820953E0,9.402853659E0
1.036380546E1,3.796105957E-1,1.936672668E0,9.272168427E0,9.479868805E0
1.037383046E1,4.126918030E-1,1.952988739E0,9.331445160E0,9.542554601E0
1.038385446E1,3.896397400E-1,1.907932434E0,9.360484772E0,9.560894334E0
1.039387946E1,3.243754578E-1,1.868264923E0,9.516759796E0,9.703831732E0
1.040390446E1,3.306623840E-1,1.848056946E0,9.800120544E0,9.978327253E0
1.041392846E1,3.152444458E-1,1.778302002E0,1.008333160E1,1.024379389E1
1.042395346E1,3.315605164E-1,1.713037720E0,1.033585648E1,1.048209710E1
1.043397846E1,3.628454590E-1,1.667682037E0,1.046473846E1,1.060299822E1
1.044400246E1,3.585044861E-1,1.628762970E0,1.049826874E1,1.062991255E1
1.045402746E1,3.372486877E-1,1.574126587E0,1.046294220E1,1.058606493E1
1.046405246E1,3.179388428E-1,1.557361450E0,1.037746994E1,1.049849238E1
1.047407646E1,3.153941345E-1,1.540895691E0,1.022763153E1,1.034786353E1
1.048410146E1,2.634521484E-1,1.545386353E0,1.006716522E1,1.018849555E1
1.049412546E1,1.977388000E-1,1.611997833E0,9.878856812E0,1.001146590E1
1.050415046E1,1.263372803E-1,1.654509430E0,9.629774780E0,9.771689971E0
1.051417546E1,1.016386414E-1,1.653611298E0,9.400451660E0,9.545326194E0
1.052419942E1,1.080752563E-1,1.702409821E0,9.287885742E0,9.443235728E0
1.053422442E1,7.394622803E-2,1.729353790E0,9.286837921E0,9.446771467E0
1.054424942E1,1.219963074E-1,1.713037720E0,9.340127106E0,9.496702358E0
1.055427342E1,1.820214844E-1,1.718127136E0,9.471404114E0,9.627699027E0
1.056429842E1,1.969903564E-1,1.705253906E0,9.607620850E0,9.759768157E0
1.057432342E1,2.627037048E-1,1.704655151E0,9.801318054E0,9.951919313E0
1.058434742E1,2.932402039E-1,1.684147797E0,9.904902649E0,1.005134021E1
1.059437242E1,2.842588806E-1,1.673370209E0,9.920769653E0,1.006492134E1
1.060439642E1,2.471360779E-1,1.654359741E0,9.928104401E0,1.006803056E1
1.061442142E1,1.957928467E-1,1.662143555E0,9.940977631E0,1.008087756E1
1.062444642E1,1.428030396E-1,1.712588654E0,9.946067047E0,1.009344353E1
1.063447042E1,6.227050781E-2,1.760489044E0,9.876312103E0,1.003218521E1
1.064449542E1,1.392105103E-2,1.805545349E0,9.737550659E0,9.903538794E0
1.065452042E1,2.395019531E-2,1.846859436E0,9.602531433E0,9.778551698E0
1.066454442E1,2.260299683E-2,1.873803406E0,9.443711700E0,9.627841959E0
1.067456942E1,6.735992432E-3,1.891616364E0,9.382489014E0,9.571277759E0
1.068459442E1,2.619552612E-2,1.877096558E0,9.372609558E0,9.558764963E0
1.069461842E1,3.876937866E-2,1.847458191E0,9.414372711E0,9.594009505E0
1.070464342E1,5.388793945E-2,1.852697296E0,9.493108978E0,9.672357999E0
1.071466842E1,7.978408813E-2,1.846560059E0,9.489067383E0,9.667396203E0
1.072469242E1,1.417552185E-1,1.847458191E0,9.442514191E0,9.622591675E0
1.073471742E1,2.052232361E-1,1.852846985E0,9.400451660E0,9.583509271E0
1.074474142E1,2.453398132E-1,1.843117218E0,9.402247925E0,9.584338201E0
1.075476642E1,2.439926147E-1,1.800006866E0,9.490564270E0,9.662834329E0
1.076479142E1,2.652484131E-1,1.764979706E0,9.645641785E0,9.809378957E0
1.077481542E1,2.923420715E-1,1.724713440E0,9.810748444E0,9.965484703E0
1.078484042E1,2.948867798E-1,1.699266357E0,9.894873505E0,1.004405227E1
1.079486542E1,2.269281006E-1,1.673370209E0,9.869426422E0,1.001285384E1
1.080488942E1,2.324665833E-1,1.647923126E0,9.782756653E0,9.923306862E0
1.081491442E1,2.255809021E-1,1.745071106E0,9.669741669E0,9.828533148E0
1.082493942E1,1.951940918E-1,1.797611847E0,9.447154541E0,9.618640133E0
1.083496342E1,2.261796570E-1,1.832639008E0,9.224567413E0,9.407569661E0
1.084498842E1,2.564167786E-1,1.847607880E0,9.111402740E0,9.300379795E0
1.085501242E1,2.529739380E-1,1.847458191E0,9.169032898E0,9.356722816E0
1.086503742E1,2.281256104E-1,1.863175507E0,9.340426483E0,9.527173303E0
1.087506242E1,1.911524963E-1,1.833387451E0,9.529483337E0,9.706127008E0
1.088508642E1,2.020797729E-1,1.800755310E0,9.736353149E0,9.903541214E0
1.089511142E1,2.469863892E-1,1.760489044E0,9.857601013E0,1.001661728E1
1.090513642E1,2.402503967E-1,1.729653168E0,9.901759186E0,1.005456390E1
1.091516042E1,2.207908630E-1,1.718725891E0,9.881251831E0,1.003204391E1
1.092518542E1,2.119592285E-1,1.730251923E0,9.835596771E0,9.988876928E0
1.093521042E1,2.197430420E-1,1.697470093E0,9.804162140E0,9.952451305E0
1.094523442E1,2.170486450E-1,1.722617798E0,9.827064514E0,9.979264460E0
1.095525942E1,1.501377869E-1,1.724264374E0,9.876910858E0,1.002741228E1
1.096528442E1,1.484912109E-1,1.734742584E0,9.894873505E0,1.004688525E1
1.097530842E1,1.516346741E-1,1.736389160E0,9.858199768E0,1.001110099E1
1.098533342E1,1.730401611E-1,1.711091766E0,9.808054047E0,9.957695623E0
1.099535742E1,2.186952209E-1,1.760189667E0,9.781409454E0,9.940928839E0
1.100538242E1,2.216889954E-1,1.775906982E0,9.752669220E0,9.915520588E0
1.101540742E1,2.619552612E-1,1.772464142E0,9.666298828E0,9.830950245E0
1.102543142E1,3.350033569E-1,1.802701263E0,9.658664703E0,9.831162848E0
1.103545642E1,3.276686096E-1,1.813029785E0,9.623787231E0,9.798557261E0
1.104548142E1,3.194357300E-1,1.821861420E0,9.628128204E0,9.804186399E0
1.105550542E1,3.305126953E-1,1.835034027E0,9.673483887E0,9.851541962E0
1.106553042E1,3.330574036E-1,1.844763794E0,9.696086884E0,9.875635754E0
1.107555542E1,3.143463135E-1,1.838027802E0,9.695039063E0,9.872737322E0
1.108557942E1,3.652404785E-1,1.801503754E0,9.700577545E0,9.873197106E0
1.109560442E1,3.815565491E-1,1.759590912E0,9.734407196E0,9.899516606E0
1.110562842E1,3.809577942E-1,1.712139587E0,9.768087158E0,9.924317485E0
1.111565342E1,4.432283020E-1,1.672621765E0,9.806108093E0,9.957603669E0
1.112567842E1,4.671784973E-1,1.684596863E0,9.815239105E0,9.969706166E0
1.113570242E1,4.652325439E-1,1.679058380E0,9.768835602E0,9.922994880E0
1.114572742E1,4.917274475E-1,1.699715424E0,9.699529724E0,9.859599651E0
1.115575242E1,4.718188477E-1,1.726210327E0,9.596992950E0,9.762412038E0
1.116577642E1,4.538562012E-1,1.757495270E0,9.578281860E0,9.748756765E0
1.117580142E1,3.959266663E-1,1.770518188E0,9.609716492E0,9.779475632E0
1.118582642E1,3.643423462E-1,1.790726166E0,9.655371552E0,9.826782044E0
1.119585042E1,3.218307495E-1,1.826352081E0,9.709109802E0,9.884632017E0
1.120587542E1,3.350033569E-1,1.831291809E0,9.785151672E0,9.960675187E0
1.121590042E1,3.391946411E-1,1.840871887E0,9.880802765E0,1.005654640E1
1.122592442E1,3.552113342E-1,1.859732666E0,9.965077515E0,1.014335007E1
1.123594942E1,3.703298950E-1,1.860630798E0,9.985135803E0,1.016376053E1
1.124597342E1,4.113446045E-1,1.832339630E0,1.000429596E1,1.017902798E1
1.125599842E1,4.590953064E-1,1.803898773E0,1.002165985E1,1.019306065E1
1.126602342E1,4.852908325E-1,1.763333130E0,1.000699036E1,1.017274333E1
1.127604742E1,4.775070190E-1,1.765728149E0,9.923014984E0,1.009019500E1
1.128607242E1,4.641847229E-1,1.769470367E0,9.763147430E0,9.933052934E0
1.129609742E1,4.710704041E-1,1.791624298E0,9.552535400E0,9.730506540E0
1.130612142E1,4.474195862E-1,1.829495544E0,9.404792633E0,9.591525567E0
1.131614642E1,4.297563171E-1,1.877695312E0,9.322912903E0,9.519828526E0
1.132617142E1,4.225712585E-1,1.926793213E0,9.344917145E0,9.550841586E0
1.133619542E1,4.418811035E-1,1.905387726E0,9.429491272E0,9.630216350E0
1.134622042E1,4.288581848E-1,1.906435547E0,9.571994934E0,9.769416710E0
1.135624542E1,4.435276794E-1,1.905387726E0,9.751771088E0,9.946067491E0
1.136626942E1,4.117936707E-1,1.850002899E0,9.900112610E0,1.007989655E1
1.137629442E1,4.242178345E-1,1.792821808E0,1.000728973E1,1.017546159E1
1.138631842E1,4.459226990E-1,1.721569977E0,1.000339783E1,1.016024696E1
1.139634342E1,4.388873291E-1,1.706002350E0,9.935588837E0,1.009053971E1
1.140636842E1,4.421804810E-1,1.713187408E0,9.840386810E0,9.998187198E0
1.141639242E1,4.628375244E-1,1.726659393E0,9.758058014E0,9.920446937E0
1.142641742E1,4.704716492E-1,1.765877838E0,9.681866455E0,9.852827318E0
1.143644242E1,4.504133606E-1,1.777852936E0,9.570797424E0,9.744936972E0
1.144646642E1,4.667294312E-1,1.805096283E0,9.481732635E0,9.663304959E0
1.145649142E1,4.165837097E-1,1.830543365E0,9.472751312E0,9.656989615E0
1.146651642E1,3.981719971E-1,1.833537140E0,9.484576721E0,9.668381197E0
1.147654042E1,3.882925415E-1,1.839524689E0,9.491163025E0,9.675577386E0
1.148656542E1,3.647914124E-1,1.819316711E0,9.482481079E0,9.662320295E0
1.149659042E1,4.013154602E-1,1.795665894E0,9.581575012E0,9.756641318E0
1.150661442E1,3.953279114E-1,1.808838501E0,9.716145172E0,9.890988721E0
1.151663942E1,3.809577942E-1,1.787283325E0,9.815688171E0,9.984349994E0
1.152666354E1,3.700305176E-1,1.816322937E0,9.859546967E0,1.003227880E1
1.153668854E1,3.317102051E-1,1.873653717E0,9.807305603E0,9.990187841E0
1.154671354E1,3.849993896E-1,1.939666443E0,9.720935211E0,9.920035878E0
1.155673754E1,3.905378723E-1,2.009421387E0,9.630822601E0,9.845965576E0
1.156676254E1,3.574566650E-1,2.073188782E0,9.561816101E0,9.790516541E0
1.157678754E1,2.954855347E-1,2.103276215E0,9.441316681E0,9.677269409E0
1.158681154E1,2.761756897E-1,2.102078705E0,9.355844421E0,9.593061697E0
1.159683654E1,3.140469360E-1,2.143392792E0,9.310937805E0,9.559619289E0
1.160686154E1,3.444337463E-1,2.141446838E0,9.318571930E0,9.567664918E0
1.161688554E1,3.664379883E-1,2.139800262E0,9.405990143E0,9.653272633E0
1.162691054E1,3.579057312E-1,2.110161896E0,9.463320923E0,9.702335937E0
1.163693454E1,3.791615295E-1,2.042801971E0,9.525142365E0,9.749109725E0
1.164695954E1,3.835025024E-1,2.017803955E0,9.606722717E0,9.823834706E0
1.165698454E1,3.969744873E-1,2.009122009E0,9.621691589E0,9.837230760E0
1.166700854E1,4.288581848E-1,2.033820648E0,9.582024078E0,9.804872830E0
1.167703354E1,4.213737488E-1,2.066003723E0,9.476044464E0,9.707798201E0
1.168705854E1,4.079017639E-1,2.120640106E0,9.454938354E0,9.698420366E0
1.169708254E1,3.983216858E-1,2.203717346E0,9.403744812E0,9.666718512E0
1.170710754E1,3.391946411E-1,2.289488983E0,9.356742554E0,9.638747015E0
1.171713254E1,2.640509033E-1,2.314936066E0,9.338929596E0,9.625188718E0
1.172715654E1,2.544708252E-1,2.336341553E0,9.386979675E0,9.676705776E0
1.173718154E1,2.689906311E-1,2.291734314E0,9.534572754E0,9.809815479E0
1.174720654E1,2.767744446E-1,2.289938049E0,9.766290894E0,1.003498172E1
1.175723054E1,2.983296204E-1,2.278412018E0,9.938432922E0,1.020061816E1
1.176725554E1,3.070115662E-1,2.281555481E0,9.998607788E0,1.026021000E1
1.177728054E1,3.165916443E-1,2.288590851E0,9.946516113E0,1.021132024E1
1.178730454E1,2.800675964E-1,2.309098206E0,9.855804749E0,1.012656208E1
1.179732954E1,2.514770508E-1,2.360291748E0,9.696685638E0,9.982982030E0
1.180735354E1,2.769241333E-1,2.369273071E0,9.545200653E0,9.838749787E0
1.181737854E1,3.170407104E-1,2.399959259E0,9.461824036E0,9.766597838E0
1.182740354E1,3.628454590E-1,2.446961517E0,9.410780182E0,9.730470756E0
1.183742754E1,3.643423462E-1,2.454745331E0,9.433981934E0,9.754923634E0
1.184745254E1,3.637435913E-1,2.459535370E0,9.400601349E0,9.723833059E0
1.185747754E1,3.477268982E-1,2.429298248E0,9.367520142E0,9.683637621E0
1.186750154E1,3.749702454E-1,2.433040466E0,9.366172943E0,9.684290588E0
1.187752654E1,3.716770935E-1,2.449506226E0,9.391769714E0,9.713061463E0
1.188755154E1,3.535647583E-1,2.467169495E0,9.461524658E0,9.784292627E0
1.189757554E1,3.370989990E-1,2.478246460E0,9.553732910E0,9.875684977E0
1.190760054E1,3.026705933E-1,2.470312958E0,9.614805908E0,9.931694128E0
1.191762554E1,3.041674805E-1,2.441722412E0,9.641899567E0,9.950917216E0
1.192764954E1,3.128494263E-1,2.461032257E0,9.632618866E0,9.946954345E0
1.193767454E1,2.812651062E-1,2.435734863E0,9.636959839E0,9.943988602E0
1.194769854E1,3.179388428E-1,2.481988678E0,9.761051788E0,1.007668025E1
1.195772354E1,2.872526550E-1,2.523452454E0,9.835297394E0,1.015792308E1
1.196774854E1,3.179388428E-1,2.445913696E0,9.896520081E0,1.019924941E1
1.197777254E1,3.318598938E-1,2.354603577E0,9.992769928E0,1.027179341E1
1.198779754E1,3.122506714E-1,2.237996063E0,1.004575974E1,1.029676724E1
1.199782254E1,2.821632385E-1,2.204316101E0,1.010967682E1,1.035104782E1
1.200784654E1,2.405497742E-1,2.169139252E0,1.012943573E1,1.036187712E1
1.201787154E1,2.664459229E-1,2.175725555E0,1.016341507E1,1.039710445E1
1.202789654E1,2.839595032E-1,2.202070770E0,1.016910324E1,1.040866992E1
1.203792054E1,2.924917603E-1,2.212399292E0,1.012629227E1,1.036928431E1
1.204794554E1,2.520758057E-1,2.204316101E0,1.007150620E1,1.031299126E1
1.205797054E1,2.856060791E-1,2.179916840E0,1.002360580E1,1.026188489E1
1.206799454E1,4.303550720E-1,2.223176880E0,9.939480743E0,1.019416492E1
1.207801954E1,4.837939453E-1,2.308499451E0,9.931696930E0,1.020792977E1
1.208804354E1,5.212161255E-1,2.334844666E0,9.947863312E0,1.023147840E1
1.209806854E1,5.263055420E-1,2.368225250E0,9.960586853E0,1.025176955E1
1.210809354E1,5.002597046E-1,2.372416534E0,9.939031677E0,1.023049220E1
1.211811754E1,5.291496277E-1,2.402803345E0,9.831854553E0,1.013502971E1
1.212814254E1,5.363346863E-1,2.381098480E0,9.791288910E0,1.009091787E1
1.213816754E1,5.487588501E-1,2.367327118E0,9.776769104E0,1.007425372E1
1.214819154E1,5.152285767E-1,2.398761749E0,9.856852570E0,1.015761099E1
1.215821654E1,4.772076416E-1,2.379002838E0,9.905950470E0,1.019878602E1
1.216824154E1,4.574487305E-1,2.341281281E0,9.982890472E0,1.026396413E1
1.217826554E1,4.044589233E-1,2.267185364E0,9.987381134E0,1.024946332E1
1.218829054E1,3.579057312E-1,2.176923065E0,9.991422729E0,1.023208770E1
1.219831554E1,3.004252625E-1,2.117796021E0,1.003483246E1,1.026027182E1
1.220833954E1,2.579136658E-1,2.085463257E0,1.017479141E1,1.038951667E1
1.221836454E1,2.677931213E-1,2.068698120E0,1.032163605E1,1.053030844E1
1.222838854E1,2.471360779E-1,2.090402985E0,1.035666321E1,1.056841207E1
1.223841354E1,1.945953369E-1,2.122885437E0,1.029364426E1,1.051207030E1
1.224843854E1,1.528321838E-1,2.087409210E0,1.012808853E1,1.034208935E1
1.225846254E1,1.115180969E-1,2.041903839E0,9.972262573E0,1.017977546E1
1.226848754E1,6.571334839E-2,2.054028625E0,9.827363892E0,1.003994188E1
1.227851254E1,5.987548828E-3,2.039209442E0,9.668993225E0,9.881692213E0
1.228853654E1,2.125579834E-2,2.012115784E0,9.607920227E0,9.816373711E0
1.229856154E1,1.300794983E-1,2.020498352E0,9.660610657E0,9.870498089E0
1.230858654E1,2.251318359E-1,2.007026367E0,9.767189026E0,9.973806728E0
1.231861054E1,2.704875183E-1,1.981429596E0,9.806407471E0,1.000823932E1
1.232863554E1,3.043171692E-1,1.927691345E0,9.802216187E0,9.994600794E0
1.233866054E1,3.647914124E-1,1.838027802E0,9.826016693E0,1.000310067E1
1.234868454E1,3.870950317E-1,1.740131378E0,9.856104126E0,1.001602158E1
1.235870954E1,3.309617615E-1,1.645079041E0,9.853709106E0,9.995569213E0
1.236873454E1,3.445834351E-1,1.538051605E0,9.862840118E0,9.987990573E0
1.237875854E1,3.342549133E-1,1.494342499E0,9.785900116E0,9.904979906E0
1.238878354E1,2.826123047E-1,1.509161682E0,9.579629059E0,9.701893197E0
1.239880754E1,2.893482971E-1,1.526226196E0,9.324110413E0,9.452625235E0
1.240883254E1,3.441343689E-1,1.563947754E0,9.134005737E0,9.273317737E0
1.241885754E1,3.312611389E-1,1.640139313E0,8.968150635E0,9.122911636E0
1.242888154E1,2.998265076E-1,1.707798615E0,8.893156586E0,9.060612899E0
1.243890654E1,3.400927734E-1,1.755549316E0,8.957522736E0,9.134266804E0
1.244893154E1,4.234693909E-1,1.809137878E0,9.061706085E0,9.250233692E0
1.245895554E1,4.129911804E-1,1.907633057E0,9.078620911E0,9.286063926E0
1.246898054E1,4.246669006E-1,1.997595978E0,9.036558380E0,9.264454599E0
1.247900554E1,5.342390442E-1,2.043550415E0,9.020092621E0,9.264101713E0
1.248902954E1,5.956114197E-1,2.086810455E0,8.984167328E0,9.242553403E0
1.249905454E1,6.339317322E-1,2.077380066E0,8.958121490E0,9.217663371E0
1.250907954E1,6.957531738E-1,2.101330261E0,8.992849274E0,9.261263381E0
1.251910354E1,7.635621643E-1,2.077978821E0,9.147178345E0,9.411264252E0
1.252912542E1,8.568182373E-1,2.084116058E0,9.367669830E0,9.634880139E0
1.253915042E1,8.357121277E-1,2.099384308E0,9.482331390E0,9.747842727E0
1.254917442E1,7.973918152E-1,2.087558899E0,9.548194427E0,9.806209904E0
1.255919942E1,8.328680420E-1,2.017953644E0,9.650132446E0,9.893981116E0
1.256922342E1,8.186476135E-1,1.922601929E0,9.688752136E0,9.911533688E0
1.257924842E1,7.701484680E-1,1.860181732E0,9.715396729E0,9.921811243E0
1.258927342E1,6.876699829E-1,1.816472626E0,9.750274200E0,9.941846397E0
1.259929742E1,5.888754272E-1,1.825453949E0,9.852511597E0,1.003748181E1
1.260932242E1,5.381309509E-1,1.815574493E0,9.937534790E0,1.011634783E1
1.261934742E1,5.266049194E-1,1.854792938E0,9.914033661E0,1.009978381E1
1.262937142E1,5.536985779E-1,1.953288116E0,9.800719299E0,1.000879690E1
1.263939642E1,5.743556213E-1,2.063009949E0,9.650880890E0,9.885615630E0
1.264942142E1,5.578898621E-1,2.208058319E0,9.498048706E0,9.767276584E0
1.265944542E1,4.869374084E-1,2.302212524E0,9.380992126E0,9.671623639E0
1.266947042E1,4.532574463E-1,2.336790619E0,9.297016754E0,9.596903315E0
1.267949542E1,4.261637878E-1,2.396067352E0,9.281598816E0,9.595354653E0
1.268951942E1,3.667373657E-1,2.409689026E0,9.214089203E0,9.531030235E0
1.269954442E1,3.420387268E-1,2.393073578E0,9.174870758E0,9.487994786E0
1.270956942E1,3.592529297E-1,2.395618286E0,9.150621185E0,9.465828950E0
1.271959342E1,3.911366272E-1,2.435435486E0,9.112001495E0,9.439963195E0
1.272961842E1,3.631448364E-1,2.454595642E0,9.003626862E0,9.339283195E0
1.273964242E1,3.062631226E-1,2.395169220E0,8.981023865E0,9.299968944E0
1.274966742E1,3.282673645E-1,2.397115173E0,8.951684875E0,9.272895056E0
1.275969242E1,3.381468201E-1,2.384541321E0,8.952882385E0,9.271164090E0
1.276971642E1,3.402424622E-1,2.381397858E0,9.058562622E0,9.372533140E0
1.277974142E1,4.111949158E-1,2.407593384E0,9.166338501E0,9.486166174E0
1.278976642E1,4.590953064E-1,2.464325409E0,9.206006012E0,9.541185194E0
1.279979042E1,5.656736755E-1,2.529440002E0,9.280850372E0,9.635986564E0
1.280981542E1,6.738986206E-1,2.579735413E0,9.328152008E0,9.701731497E0
1.281984042E1,7.461982727E-1,2.602787476E0,9.411229248E0,9.792984758E0
1.282986442E1,7.943980408E-1,2.601440277E0,9.534273376E0,9.914682475E0
1.283988942E1,8.509803772E-1,2.591261444E0,9.693841553E0,1.007022182E1
1.284991442E1,8.939410400E-1,2.587519226E0,9.801318054E0,1.017645429E1
1.285993842E1,9.093589783E-1,2.594255219E0,9.868228912E0,1.024397558E1
1.286996342E1,9.448352051E-1,2.558030548E0,9.912536774E0,1.028078884E1
1.287998842E1,9.559121704E-1,2.532134399E0,9.891879730E0,1.025547450E1
1.289001242E1,8.979826355E-1,2.495011597E0,9.803413696E0,1.015570656E1
1.290003742E1,8.390052795E-1,2.447410583E0,9.727671204E0,1.006584996E1
1.291006142E1,7.102729797E-1,2.410138092E0,9.621242523E0,9.943920807E0
1.292008642E1,6.541397095E-1,2.354902954E0,9.516161041E0,9.825008277E0
1.293011142E1,6.551875305E-1,2.362237701E0,9.502239990E0,9.813358370E0
1.294013542E1,6.457571411E-1,2.424657898E0,9.566456451E0,9.890048394E0
1.295016042E1,6.420149231E-1,2.423759766E0,9.555379486E0,9.878869960E0
1.296018542E1,5.935157776E-1,2.431543579E0,9.578880615E0,9.900485796E0
1.297020942E1,5.935157776E-1,2.464475098E0,9.566905518E0,9.897049038E0
1.298023442E1,6.164181519E-1,2.490221558E0,9.512269135E0,9.852128645E0
1.299025942E1,6.164181519E-1,2.509381714E0,9.412875824E0,9.761106454E0
1.300028342E1,5.674699402E-1,2.567910004E0,9.354197845E0,9.716851406E0
1.301030842E1,6.011499023E-1,2.625091095E0,9.307644653E0,9.689413473E0
1.302033342E1,6.649172974E-1,2.674188995E0,9.263336792E0,9.664512937E0
1.303035742E1,7.102729797E-1,2.738555145E0,9.289532318E0,9.710797222E0
1.304038242E1,8.563691711E-1,2.838547211E0,9.402247925E0,9.858650235E0
1.305040742E1,8.497828674E-1,2.999013519E0,9.524992676E0,1.002206059E1
1.306043142E1,8.333171082E-1,3.020119629E0,9.620194702E0,1.011749406E1
1.307045642E1,7.917036438E-1,2.983745270E0,9.732760620E0,1.021059057E1
1.308048042E1,6.792874146E-1,2.855462036E0,9.663305054E0,1.009923558E1
1.309050542E1,6.376739502E-1,2.782114563E0,9.743837585E0,1.015328323E1
1.310053042E1,6.041436768E-1,2.754871216E0,9.957742767E0,1.034944182E1
1.311055442E1,6.047424316E-1,2.735711060E0,1.017613861E1,1.055479159E1
1.312057942E1,6.253994751E-1,2.724484406E0,1.029005173E1,1.066297821E1
1.313060442E1,6.779402161E-1,2.633024597E0,1.030067963E1,1.065346996E1
1.314062842E1,7.512876892E-1,2.582579498E0,1.030067963E1,1.064603921E1
1.315065342E1,7.771838379E-1,2.606230316E0,1.024948608E1,1.060416975E1
1.316067842E1,7.967930603E-1,2.678080902E0,1.013168106E1,1.050989808E1
1.317070242E1,8.192463684E-1,2.671045532E0,9.961484985E0,1.034586062E1
1.318072742E1,9.032217407E-1,2.701731720E0,9.802066498E0,1.020762810E1
1.319075242E1,9.261241150E-1,2.702180786E0,9.692644043E0,1.010479270E1
1.320077642E1,9.593550110E-1,2.673141174E0,9.630223846E0,1.004028172E1
1.321080142E1,9.662406921E-1,2.667902069E0,9.655221863E0,1.006352979E1
1.322082642E1,8.994795227E-1,2.637215881E0,9.701775055E0,1.009397891E1
1.323085042E1,9.156459045E-1,2.647095337E0,9.746082916E0,1.014059433E1
1.324087542E1,9.451345825E-1,2.623893585E0,9.763446808E0,1.015396427E1
1.325089942E1,9.198371887E-1,2.626887360E0,9.719887390E0,1.011053157E1
1.326092442E1,9.084608459E-1,2.598296814E0,9.743837585E0,1.012515769E1
1.327094942E1,8.957373047E-1,2.566712494E0,9.867929535E0,1.023554550E1
1.328097342E1,8.342152405E-1,2.559976501E0,1.004261627E1,1.039728505E1
1.329099842E1,7.487429810E-1,2.596350861E0,1.020368134E1,1.055541409E1
1.330102342E1,6.912625122E-1,2.615810394E0,1.030921188E1,1.065833747E1
1.331104742E1,6.767427063E-1,2.586471405E0,1.037702087E1,1.071589367E1
1.332107242E1,6.863227844E-1,2.507884827E0,1.047910858E1,1.079686260E1
1.333109742E1,6.080355835E-1,2.406695251E0,1.054856415E1,1.083670129E1
1.334112142E1,5.905220032E-1,2.203717346E0,1.063957489E1,1.088143558E1
1.335114642E1,6.402186584E-1,2.000889130E0,1.084449875E1,1.104611200E1
1.336117142E1,7.235952759E-1,1.778451691E0,1.103999222E1,1.120570876E1
1.337119542E1,8.515791321E-1,1.533111877E0,1.111453720E1,1.125204676E1
1.338122042E1,8.789721680E-1,1.323847046E0,1.108220444E1,1.119555350E1
1.339124542E1,8.346643066E-1,1.160985718E0,1.083177521E1,1.092574512E1
1.340126942E1,7.496411133E-1,1.139430542E0,1.036549484E1,1.045484324E1
1.341129442E1,6.375242615E-1,1.193617859E0,9.632469177E0,9.727056247E0
1.342131942E1,4.957690430E-1,1.291364594E0,8.794212341E0,8.902335658E0
1.343134342E1,3.188369751E-1,1.472487946E0,8.122559052E0,8.261104243E0
1.344136842E1,1.757345581E-1,1.634151764E0,7.694299622E0,7.867882898E0
1.345139342E1,1.793270874E-1,1.749412079E0,7.390431519E0,7.596780822E0
1.346141742E1,1.950444031E-1,1.786834259E0,7.257657623E0,7.476925382E0
1.347144242E1,1.582209778E-1,1.857936401E0,7.434889069E0,7.665150815E0
1.348146642E1,6.451583862E-2,1.857786713E0,7.880063324E0,8.096352991E0
1.349149142E1,2.200424194E-2,1.762135620E0,8.464597778E0,8.646098639E0
1.350151642E1,-5.164260864E-2,1.854942627E0,8.737180939E0,8.932066383E0
1.351154042E1,-1.675016785E-1,2.030228119E0,9.340576172E0,9.560138401E0
1.352156529E1,-1.592687988E-1,2.150128784E0,9.641001434E0,9.879136045E0
1.353159029E1,-6.481521606E-2,2.189945984E0,9.774673462E0,1.001720049E1
1.354161429E1,9.280700684E-3,2.157313843E0,9.801018677E0,1.003563930E1
1.355163929E1,4.266128540E-2,2.068698120E0,9.857750702E0,1.007256575E1
1.356166429E1,8.532257080E-2,1.957180023E0,9.901160431E0,1.009310713E1
1.357168829E1,1.776805115E-1,1.836231537E0,9.828262024E0,9.999902551E0
1.358171329E1,2.327659607E-1,1.727856903E0,9.811945953E0,9.965638608E0
1.359173829E1,2.466870117E-1,1.749861145E0,9.832004242E0,9.989553339E0
1.360176229E1,1.523831177E-1,1.713187408E0,9.805509338E0,9.955211956E0
1.361178729E1,1.333726501E-1,1.738035736E0,9.769584045E0,9.923876707E0
1.362181229E1,1.326242065E-1,1.821412354E0,9.733059998E0,9.902908111E0
1.363183629E1,1.511856079E-1,1.940414886E0,9.636810150E0,9.831387333E0
1.364186129E1,7.200027466E-2,2.023342438E0,9.514963531E0,9.727981788E0
1.365188629E1,5.598358154E-2,2.163451080E0,9.392218781E0,9.638331202E0
1.366191029E1,5.538482666E-2,2.222278748E0,9.214987335E0,9.479323916E0
1.367193529E1,3.832031250E-2,2.325863342E0,9.069040833E0,9.362617708E0
1.368195929E1,1.646575928E-3,2.377206573E0,8.881630554E0,9.194263163E0
1.369198429E1,-1.167572021E-2,2.457739105E0,8.707841949E0,9.048045604E0
1.370200929E1,1.990859985E-2,2.461481323E0,8.573720856E0,8.920088339E0
1.371203329E1,7.604187012E-2,2.497256927E0,8.565787354E0,8.922711892E0
1.372205829E1,1.288819885E-1,2.466870117E0,8.693920898E0,9.038048425E0
1.373208329E1,2.094145203E-1,2.470013580E0,8.886121216E0,9.225398191E0
1.374210729E1,2.270777893E-1,2.404300232E0,9.019793243E0,9.337499348E0
1.375213229E1,2.465373230E-1,2.358645172E0,9.120234375E0,9.423516475E0
1.376215729E1,3.279679871E-1,2.308349762E0,9.134454803E0,9.427317019E0
1.377218129E1,3.517684937E-1,2.310146027E0,9.148675232E0,9.442392400E0
1.378220629E1,3.348536682E-1,2.240690460E0,9.091643829E0,9.369674927E0
1.379223129E1,3.537144470E-1,2.226020966E0,9.081165619E0,9.356700928E0
1.380225529E1,3.814068604E-1,2.204465790E0,9.213939514E0,9.481657133E0
1.381228029E1,3.649411011E-1,2.166444855E0,9.413773956E0,9.666737061E0
1.382230529E1,2.662962341E-1,2.129771118E0,9.674082642E0,9.909324581E0
1.383232929E1,2.258802795E-1,2.189646606E0,9.904004517E0,1.014568281E1
1.384235429E1,1.442999268E-1,2.170785828E0,1.001267853E1,1.024630982E1
1.385237929E1,9.071136475E-2,2.201322327E0,1.005054977E1,1.028919819E1
1.386240329E1,1.059796143E-1,2.204465790E0,1.004246658E1,1.028212216E1
1.387242829E1,1.317260742E-1,2.272125092E0,1.007899063E1,1.033276131E1
1.388245329E1,1.082249451E-1,2.274819489E0,1.020652542E1,1.045751775E1
1.389247729E1,1.422042847E-1,2.334545288E0,1.027328659E1,1.053616349E1
1.390250229E1,1.246907043E-1,2.384092255E0,1.019904099E1,1.047472580E1
1.391252729E1,1.200503540E-1,2.424208832E0,1.006237518E1,1.035097072E1
1.392255129E1,1.444496155E-1,2.471360779E0,9.930649109E0,1.023456308E1
1.393257629E1,9.729766846E-2,2.571053467E0,9.768536224E0,1.010168712E1
1.394260129E1,9.610015869E-2,2.629881134E0,9.656718750E0,1.000888241E1
1.395262529E1,1.583706665E-1,2.715353394E0,9.637558594E0,1.001402821E1
1.396265029E1,2.145039368E-1,2.755769348E0,9.648336182E0,1.003646689E1
1.397267429E1,2.968327332E-1,2.845133514E0,9.749525757E0,1.016051903E1
1.398269929E1,3.445834351E-1,2.907254333E0,9.843081207E0,1.026923138E1
1.399272429E1,3.321592712E-1,3.048111420E0,9.847122803E0,1.031344465E1
1.400274829E1,3.041674805E-1,3.079396362E0,9.823771362E0,1.029959628E1
1.401277329E1,3.918850708E-1,3.099754028E0,9.854607239E0,1.033805266E1
1.402279829E1,5.301974487E-1,2.996917877E0,9.905351715E0,1.036236550E1
1.403282229E1,6.105802917E-1,2.830164642E0,1.011282028E1,1.051911471E1
1.404284729E1,5.754034424E-1,2.675536194E0,1.034094589E1,1.069695027E1
1.405287229E1,4.590953064E-1,2.627186737E0,1.046743286E1,1.080185305E1
1.406289629E1,3.257226562E-1,2.644999695E0,1.040261765E1,1.073855542E1
1.407292129E1,3.760180664E-1,2.627935181E0,1.023466690E1,1.057335517E1
1.408294629E1,4.918771362E-1,2.661465454E0,1.009725266E1,1.045370043E1
1.409297029E1,4.813989258E-1,2.683619385E0,1.006432114E1,1.042708578E1
1.410299529E1,4.456233215E-1,2.775228882E0,1.013213013E1,1.051477705E1
1.411302029E1,3.588038635E-1,2.810405731E0,1.023182281E1,1.061684128E1
1.412304429E1,2.923420715E-1,2.763702850E0,1.029888336E1,1.066726375E1
1.413306929E1,2.029779053E-1,2.613864441E0,1.029109955E1,1.061980307E1
1.414309429E1,1.457968140E-1,2.418071594E0,1.029618896E1,1.057732642E1
1.415311829E1,1.880090332E-1,2.194736023E0,1.028945297E1,1.052259740E1
1.416314329E1,2.174977112E-1,1.997296600E0,1.033361115E1,1.052710873E1
1.417316829E1,2.287243652E-1,1.871857452E0,1.030921188E1,1.048026788E1
1.418319229E1,2.023791504E-1,1.748513947E0,1.015458344E1,1.030600908E1
1.419321729E1,1.683998108E-1,1.698517914E0,9.837991791E0,9.984958892E0
1.420324229E1,1.529818726E-1,1.758094025E0,9.481582947E0,9.644413576E0
1.421326629E1,1.104702759E-1,1.869612122E0,9.126521301E0,9.316707800E0
1.422329129E1,8.607101440E-2,1.968556366E0,8.877439270E0,9.093489450E0
1.423331629E1,1.182540894E-2,2.123783569E0,8.733438721E0,8.987966866E0
1.424334029E1,1.960922241E-2,2.202669525E0,8.711284790E0,8.985467169E0
1.425336529E1,1.845661926E-1,2.158810730E0,8.836723938E0,9.098473411E0
1.426339029E1,2.167492676E-1,2.095791779E0,9.084458771E0,9.325594597E0
1.427341429E1,2.094145203E-1,2.048639832E0,9.382039948E0,9.605386675E0
1.428343929E1,2.230361938E-1,2.009571075E0,9.559421082E0,9.770908477E0
1.429346429E1,3.436853027E-1,1.971849518E0,9.596244507E0,9.802765872E0
1.430348829E1,5.228627014E-1,2.004781036E0,9.587712250E0,9.809014150E0
1.431351329E1,6.854246521E-1,1.993404694E0,9.494007111E0,9.725206437E0
1.432353729E1,8.611592102E-1,1.980681152E0,9.367370453E0,9.613132799E0
1.433356229E1,1.031504974E0,2.037712555E0,9.323062592E0,9.598737993E0
1.434358729E1,1.068029022E0,2.125430145E0,9.316176910E0,9.615055461E0
1.435361129E1,1.042132874E0,2.209255829E0,9.233399048E0,9.551047598E0
1.436363629E1,1.050665131E0,2.310894470E0,9.126221924E0,9.472700622E0
1.437366129E1,1.030307465E0,2.451302490E0,9.003776550E0,9.388205874E0
1.438368529E1,9.855505371E-1,2.611619110E0,8.902287598E0,9.329661768E0
1.439371029E1,8.732839966E-1,2.730322266E0,8.810229034E0,9.264848636E0
1.440373529E1,7.948471069E-1,2.740201721E0,8.740773468E0,9.194651065E0
1.441375929E1,7.658074951E-1,2.650238800E0,8.820258179E0,9.241600573E0
1.442378429E1,6.291416931E-1,2.564167786E0,9.030720520E0,9.408755965E0
1.443380929E1,5.469625854E-1,2.406096497E0,9.322912903E0,9.643918986E0
1.444383329E1,5.563929749E-1,2.276615753E0,9.674831085E0,9.954642583E0
1.445385829E1,5.065466309E-1,2.167642365E0,9.994865570E0,1.023975589E1
1.446388329E1,4.825964355E-1,2.063908081E0,1.014949402E1,1.036845431E1
1.447390729E1,5.777984619E-1,2.051034851E0,1.021670425E1,1.043655311E1
1.448393229E1,5.911207581E-1,2.117945709E0,1.018167709E1,1.041641331E1
1.449395729E1,5.330415344E-1,2.107617188E0,9.971214752E0,1.020545477E1
1.450398129E1,5.240602112E-1,2.109563141E0,9.693392487E0,9.934120678E0
1.451400629E1,4.671784973E-1,2.148482208E0,9.436676331E0,9.689431960E0
1.452403467E1,4.357438660E-1,2.261197815E0,9.223220215E0,9.506349426E0
1.453405867E1,3.799099731E-1,2.345322876E0,9.059311066E0,9.365681394E0
1.454408367E1,2.815644836E-1,2.410736847E0,8.868457947E0,9.194589553E0
1.455410867E1,2.239343262E-1,2.434687042E0,8.677155762E0,9.015036311E0
1.456413267E1,1.799258423E-1,2.466271362E0,8.558901672E0,8.908965461E0
1.457415767E1,1.538800049E-1,2.483186188E0,8.534951477E0,8.890179380E0
1.458418267E1,1.706451416E-1,2.477947083E0,8.633296967E0,8.983493642E0
1.459420667E1,1.691482544E-1,2.461331635E0,8.779093781E0,9.119169488E0
1.460423167E1,1.342707825E-1,2.471959534E0,8.932375031E0,9.269084975E0
1.461425667E1,1.291813660E-1,2.477348328E0,9.017248535E0,9.352257145E0
1.462428067E1,1.564247131E-1,2.468666382E0,9.049431610E0,9.381417529E0
1.463430567E1,1.669029236E-1,2.477498016E0,9.094338226E0,9.427239298E0
1.464433067E1,1.613644409E-1,2.443818054E0,9.191336517E0,9.512042480E0
1.465435467E1,1.896556091E-1,2.448308716E0,9.338330841E0,9.655806943E0
1.466437967E1,2.462379456E-1,2.415526886E0,9.472152557E0,9.778398506E0
1.467440467E1,3.007246399E-1,2.452200623E0,9.642947388E0,9.954403926E0
1.468442867E1,3.706292725E-1,2.492915955E0,9.775272217E0,1.009494641E1
1.469445367E1,5.192701721E-1,2.512824554E0,9.813891907E0,1.014378643E1
1.470447867E1,6.773414612E-1,2.607427826E0,9.789642334E0,1.015354954E1
1.471450267E1,7.360194397E-1,2.676134949E0,9.677824860E0,1.006795495E1
1.472452767E1,7.943980408E-1,2.649041290E0,9.648934937E0,1.003745154E1
1.473455267E1,7.966433716E-1,2.674488373E0,9.689949646E0,1.008378167E1
1.474457667E1,7.517367554E-1,2.668500824E0,9.744136963E0,1.013085435E1
1.475460167E1,7.408094788E-1,2.663561096E0,9.800270233E0,1.018276254E1
1.476462667E1,7.330256653E-1,2.697091370E0,9.844578094E0,1.023363798E1
1.477465067E1,7.206015015E-1,2.693798218E0,9.863588562E0,1.025018023E1
1.478467567E1,6.740483093E-1,2.696642303E0,9.878557434E0,1.026216925E1
1.479470067E1,7.117698669E-1,2.718646545E0,9.879006500E0,1.027095053E1
1.480472467E1,7.024891663E-1,2.763702850E0,9.812694397E0,1.021863571E1
1.481474967E1,6.481521606E-1,2.824027405E0,9.746831360E0,1.016838009E1
1.482477467E1,6.503974915E-1,2.982847137E0,9.695188751E0,1.016450092E1
1.483479867E1,6.506968689E-1,3.063529358E0,9.603130188E0,1.010092708E1
1.484482367E1,7.372169495E-1,3.088826752E0,9.563762054E0,1.007719625E1
1.485484867E1,7.295828247E-1,3.032244415E0,9.592352600E0,1.008662608E1
1.486487267E1,6.506968689E-1,2.912194061E0,9.718390503E0,1.016618880E1
1.487489767E1,5.545967102E-1,2.882256317E0,9.893077240E0,1.031930018E1
1.488492267E1,4.641847229E-1,2.864593048E0,1.020128632E1,1.060601732E1
1.489494667E1,5.436694336E-1,2.768043823E0,1.040995239E1,1.078539530E1
1.490497167E1,5.287005615E-1,2.701582031E0,1.056083862E1,1.091372449E1
1.491499667E1,5.833369446E-1,2.658321991E0,1.060589493E1,1.094951894E1
1.492502067E1,6.417155457E-1,2.740351410E0,1.067505112E1,1.103983881E1
1.493504567E1,5.777984619E-1,2.830613708E0,1.065708847E1,1.104172811E1
1.494507067E1,5.441184998E-1,2.856509857E0,1.054467224E1,1.093827346E1
1.495509467E1,5.544470215E-1,2.849624176E0,1.039528290E1,1.079303831E1
1.496511967E1,5.999523926E-1,2.743943939E0,1.029843430E1,1.067459227E1
1.497514467E1,6.432124329E-1,2.628384247E0,1.033510803E1,1.068347247E1
1.498516867E1,6.942562866E-1,2.440674591E0,1.049961594E1,1.080188961E1
1.499519367E1,7.279362488E-1,2.251617737E0,1.071771240E1,1.097583859E1
1.500521867E1,7.556286621E-1,2.100282440E0,1.087518494E1,1.110188310E1
1.501524267E1,7.673043823E-1,1.977537689E0,1.102262833E1,1.122487178E1
1.502526767E1,7.487429810E-1,1.901645508E0,1.108564728E1,1.127246412E1
1.503529267E1,6.941065979E-1,1.849404144E0,1.093266541E1,1.110969183E1
1.504531667E1,7.110214233E-1,1.862427063E0,1.061682220E1,1.080236547E1
1.505534167E1,6.962022400E-1,1.858086090E0,1.020053787E1,1.039173491E1
1.506536667E1,6.486012268E-1,1.879940643E0,9.699829102E0,9.901593052E0
1.507539067E1,6.271957397E-1,1.890568542E0,9.203910370E0,9.416984125E0
1.508541567E1,5.701643372E-1,1.892963562E0,8.721164246E0,8.942432791E0
1.509544067E1,4.550537109E-1,1.846859436E0,8.257278900E0,8.473524561E0
1.510546467E1,3.649411011E-1,1.881587219E0,8.001161499E0,8.227523188E0
1.511548967E1,2.570155334E-1,1.868264923E0,7.936795349E0,8.157768765E0
1.512551467E1,1.101708984E-1,1.883383484E0,8.018824768E0,8.237768001E0
1.513553867E1,-2.529739380E-2,1.964963837E0,8.164771271E0,8.397929075E0
1.514556367E1,-6.915618896E-2,1.999392242E0,8.385412445E0,8.620759467E0
1.515558867E1,-1.332229614E-2,2.029928741E0,8.613088989E0,8.849072839E0
1.516561267E1,-1.188528442E-1,2.070045319E0,8.717122650E0,8.960325938E0
1.517563767E1,-2.375559998E-1,2.132166138E0,8.714877319E0,8.975057213E0
1.518566267E1,-3.198847961E-1,2.255210266E0,8.758436737E0,9.049779760E0
1.519568667E1,-3.564088440E-1,2.377356262E0,8.865015106E0,9.185169726E0
1.520571167E1,-2.525248718E-1,2.326911163E0,8.960965576E0,9.261597510E0
1.521573667E1,-5.987548828E-3,2.170187073E0,9.145681458E0,9.399640265E0
1.522576067E1,2.288740540E-1,2.016905823E0,9.434580688E0,9.650471760E0
1.523578567E1,3.659889221E-1,1.879641266E0,9.611512756E0,9.800417167E0
1.524581067E1,3.884422302E-1,1.745819550E0,9.730664978E0,9.893665356E0
1.525583467E1,4.312532043E-1,1.654958496E0,9.947414246E0,1.009336005E1
1.526585967E1,4.926255798E-1,1.564396820E0,1.023511597E1,1.036569420E1
1.527588467E1,5.108876038E-1,1.568588104E0,1.043554916E1,1.056513895E1
1.528590867E1,4.611909485E-1,1.635349274E0,1.031609756E1,1.045509126E1
1.529593367E1,3.706292725E-1,1.783690796E0,9.930200043E0,1.009592947E1
1.530595867E1,3.174897766E-1,1.983974304E0,9.418264618E0,9.630195336E0
1.531598267E1,2.749781799E-1,2.191891937E0,8.988508301E0,9.255986427E0
1.532600767E1,1.613644409E-1,2.338886261E0,8.711584167E0,9.021536794E0
1.533603267E1,7.319778442E-2,2.448608093E0,8.650810547E0,8.990971173E0
1.534605667E1,2.409988403E-2,2.483186188E0,8.739575958E0,9.085536989E0
1.535608167E1,1.811233521E-2,2.501897278E0,8.940009155E0,9.283511283E0
1.536610667E1,2.080673218E-2,2.541714478E0,9.083410950E0,9.432343287E0
1.537613067E1,1.541793823E-2,2.535876617E0,9.078171844E0,9.425715462E0
1.538615567E1,5.523513794E-2,2.528841248E0,9.027876434E0,9.375534219E0
1.539618067E1,1.179547119E-1,2.546953583E0,9.035360870E0,9.388217718E0
1.540620467E1,1.707948303E-1,2.556383972E0,9.054521027E0,9.410027678E0
1.541622967E1,2.579136658E-1,2.501148834E0,9.126970367E0,9.466987538E0
1.542625467E1,3.372486877E-1,2.471510468E0,9.176217957E0,9.509210096E0
1.543627867E1,4.029620361E-1,2.464175720E0,9.262887726E0,9.593520178E0
1.544630367E1,4.505630493E-1,2.427052917E0,9.312135315E0,9.633766504E0
1.545632867E1,4.983137512E-1,2.383343811E0,9.298513641E0,9.612023734E0
1.546635267E1,5.921685791E-1,2.443818054E0,9.294771423E0,9.628898489E0
1.547637767E1,5.201683044E-1,2.549198914E0,9.298064575E0,9.655205591E0
1.548640267E1,5.366340637E-1,2.583477631E0,9.288334808E0,9.655852955E0
1.549642767E1,5.911207581E-1,2.586321716E0,9.363328857E0,9.731927407E0
1.550645167E1,4.873864746E-1,2.642904053E0,9.461674347E0,9.835942703E0
1.551647667E1,3.210823059E-1,2.664908295E0,9.519454193E0,9.890643973E0
1.552649704E1,2.218386841E-1,2.639461212E0,9.652527466E0,1.000935834E1
1.553652204E1,1.839674377E-1,2.689307556E0,9.811496887E0,1.017505235E1
1.554654704E1,9.520202637E-2,2.720891876E0,9.887838135E0,1.025581099E1
1.555657204E1,2.140548706E-2,2.685415649E0,9.882449341E0,1.024083592E1
1.556659604E1,7.933502197E-3,2.612666931E0,9.800868988E0,1.014313188E1
1.557662104E1,-2.694396973E-2,2.586321716E0,9.776170349E0,1.011253147E1
1.558664604E1,-6.152206421E-2,2.583327942E0,9.709259491E0,1.004724281E1
1.559667004E1,-9.131011963E-3,2.593806152E0,9.622140656E0,9.965616114E0
1.560669504E1,5.478607178E-2,2.635569305E0,9.510173492E0,9.868770285E0
1.561672004E1,6.047424316E-2,2.690505066E0,9.448052673E0,9.823857387E0
1.562674404E1,4.984634399E-2,2.709066467E0,9.488019562E0,9.867321875E0
1.563676904E1,2.694396973E-3,2.719844055E0,9.554032288E0,9.933634375E0
1.564679404E1,-5.239105225E-3,2.738854523E0,9.630972290E0,1.001284070E1
1.565681804E1,1.023870850E-1,2.794688416E0,9.806856537E0,1.019780376E1
1.566684304E1,1.645079041E-1,2.846480713E0,1.002240829E1,1.042008557E1
1.567686804E1,1.830693054E-1,2.895728302E0,1.019440063E1,1.059927172E1
1.568689204E1,2.418969727E-1,2.917433167E0,1.041743683E1,1.082094823E1
1.569691704E1,3.486250305E-1,2.886447601E0,1.069989944E1,1.108787479E1
1.570694204E1,4.523593140E-1,2.808908844E0,1.098655334E1,1.134896261E1
1.571696604E1,4.863386536E-1,2.767894135E0,1.123758133E1,1.158365216E1
1.572699104E1,4.450245667E-1,2.720442810E0,1.138262970E1,1.171166576E1
1.573701604E1,3.888912964E-1,2.676584015E0,1.133383118E1,1.165208426E1
1.574704004E1,3.550616455E-1,2.653831329E0,1.111199249E1,1.143001604E1
1.575706504E1,3.603007507E-1,2.652035065E0,1.075573334E1,1.108372258E1
1.576709004E1,3.625460815E-1,2.685715027E0,1.050934570E1,1.085314940E1
1.577711404E1,3.950285339E-1,2.758164368E0,1.041384430E1,1.078015173E1
1.578713904E1,3.362008667E-1,2.874622192E0,1.031894165E1,1.071713770E1
1.579716404E1,2.897973633E-1,2.966680756E0,1.007150620E1,1.050335252E1
1.580718804E1,2.351609802E-1,2.972069550E0,9.714199219E0,1.016140564E1
1.581721304E1,2.028282166E-1,2.813249817E0,9.484277344E0,9.894798156E0
1.582723804E1,2.528242493E-1,2.554288330E0,9.557774506E0,9.896431805E0
1.583726204E1,2.710862732E-1,2.248923340E0,9.854158173E0,1.011116102E1
1.584728704E1,2.025288391E-1,1.952090607E0,1.018377274E1,1.037115725E1
1.585731204E1,1.285826111E-1,1.706900482E0,1.038944504E1,1.052951143E1
1.586733604E1,1.383123779E-1,1.636696472E0,1.042207718E1,1.055071554E1
1.587736104E1,1.758842468E-1,1.647174683E0,1.031894165E1,1.045106102E1
1.588738604E1,2.472857666E-1,1.556163940E0,1.006806335E1,1.019061805E1
1.589741004E1,4.110452271E-1,1.588347015E0,9.754465485E0,9.891481250E0
1.590743504E1,5.114863586E-1,1.670526123E0,9.430838470E0,9.591297622E0
1.591746004E1,4.647834778E-1,1.745220795E0,9.170829163E0,9.346974207E0
1.592748504E1,4.511618042E-1,1.792821808E0,8.960217133E0,9.148947922E0
1.593750904E1,5.054988098E-1,1.842368774E0,8.817264404E0,9.021862520E0
1.594753404E1,5.551954651E-1,1.933379517E0,8.739575958E0,8.968075952E0
1.595755904E1,6.298901367E-1,2.044747925E0,8.707542572E0,8.966551918E0
1.596758304E1,6.975494385E-1,2.119741974E0,8.647816772E0,8.931103862E0
1.597760804E1,7.002438354E-1,2.215692444E0,8.574020233E0,8.883324681E0
1.598763304E1,6.848258972E-1,2.262694702E0,8.638985138E0,8.956608624E0
1.599765704E1,7.310797119E-1,2.295326843E0,8.775351563E0,9.099988896E0
1.600768204E1,6.951544189E-1,2.261497192E0,8.924142151E0,9.232438592E0
1.601770704E1,6.075865173E-1,2.352358246E0,9.060957642E0,9.381028945E0
1.602773104E1,5.532495117E-1,2.421813812E0,9.080866241E0,9.414531261E0
1.603775604E1,5.577401733E-1,2.412682800E0,9.012458496E0,9.346471021E0
1.604778104E1,5.550457764E-1,2.424807587E0,8.966803436E0,9.305446336E0
1.605780504E1,5.519023132E-1,2.355052643E0,9.041647797E0,9.359608111E0
1.606783004E1,4.863386536E-1,2.300266571E0,9.237740021E0,9.532239625E0
1.607785504E1,3.353027344E-1,2.214644623E0,9.446106720E0,9.708038468E0
1.608787904E1,2.398013306E-1,2.142794037E0,9.613907776E0,9.852730266E0
1.609790404E1,2.456391907E-1,2.107168121E0,9.760303345E0,9.988193905E0
1.610792904E1,2.023791504E-1,2.120041351E0,9.734407196E0,9.964648318E0
1.611795304E1,1.944456482E-1,2.127525787E0,9.499695282E0,9.736959769E0
1.612797804E1,2.844085693E-1,2.190245361E0,9.275162201E0,9.534500345E0
1.613800304E1,2.719844055E-1,2.240840149E0,9.111702118E0,9.387143100E0
1.614802704E1,3.475772095E-1,2.299817505E0,8.989556122E0,9.285585051E0
1.615805204E1,4.550537109E-1,2.359842682E0,8.868008881E0,9.187900352E0
1.616807704E1,4.661306763E-1,2.414628754E0,8.731941833E0,9.071632599E0
1.617810104E1,4.245172119E-1,2.447410583E0,8.635093231E0,8.985258401E0
1.618812604E1,3.558100891E-1,2.431842957E0,8.586444397E0,8.931264657E0
1.619815104E1,2.463876343E-1,2.424807587E0,8.578510895E0,8.918029371E0
1.620817604E1,1.398092651E-1,2.393822021E0,8.672964478E0,8.998346700E0
1.621820004E1,3.487747192E-2,2.379601593E0,8.809779968E0,9.125565367E0
1.622822504E1,-2.933898926E-2,2.362537079E0,8.991651764E0,9.296894302E0
1.623825004E1,-5.523513794E-2,2.320923615E0,9.229806519E0,9.517303490E0
1.624827404E1,-1.248403931E-1,2.306403809E0,9.411828003E0,9.691108812E0
1.625829904E1,-1.616638184E-1,2.300865326E0,9.508377228E0,9.784137874E0
1.626832404E1,-1.067280579E-1,2.264490967E0,9.524842987E0,9.790911303E0
1.627834804E1,-3.891906738E-2,2.278412018E0,9.567204895E0,9.834840391E0
1.628837304E1,2.874023438E-2,2.307152252E0,9.569150848E0,9.843395018E0
1.629839804E1,1.273851013E-1,2.317331085E0,9.459728394E0,9.740262399E0
1.630842204E1,2.598596191E-1,2.367476807E0,9.359586639E0,9.657863921E0
1.631844704E1,3.505709839E-1,2.451452179E0,9.314530334E0,9.638101118E0
1.632847204E1,4.707710266E-1,2.538870392E0,9.274563446E0,9.627305716E0
1.633849604E1,5.810916138E-1,2.600542145E0,9.273815002E0,9.649048223E0
1.634852104E1,6.780899048E-1,2.716850281E0,9.355395355E0,9.765475084E0
1.635854604E1,7.545808411E-1,2.806663513E0,9.417366486E0,9.855635132E0
1.636857004E1,8.849597168E-1,2.834206238E0,9.508377228E0,9.961180462E0
1.637859504E1,9.746232605E-1,2.829865265E0,9.612560577E0,1.006773802E1
1.638862004E1,9.574090576E-1,2.791095886E0,9.809101868E0,1.024330649E1
1.639864404E1,9.939331055E-1,2.779120789E0,1.006896149E1,1.049263555E1
1.640866904E1,9.839039612E-1,2.780318298E0,1.024499542E1,1.066105849E1
1.641869404E1,9.427395630E-1,2.762355652E0,1.033061737E1,1.073503712E1
1.642871904E1,9.193881226E-1,2.725681915E0,1.033885025E1,1.073156284E1
1.643874304E1,8.155041504E-1,2.637215881E0,1.024394760E1,1.060935517E1
1.644876804E1,7.262896729E-1,2.594404907E0,1.008677444E1,1.044037606E1
1.645879304E1,7.378157043E-1,2.596650238E0,9.941576385E0,1.030154869E1
1.646881704E1,7.450007629E-1,2.603086853E0,9.810449066E0,1.017722940E1
1.647884204E1,7.556286621E-1,2.651286621E0,9.703571320E0,1.008759594E1
1.648886704E1,7.824229431E-1,2.746039581E0,9.640552368E0,1.005450988E1
1.649889104E1,7.705975342E-1,2.826572113E0,9.560019836E0,9.998865423E0
1.650891604E1,7.665559387E-1,2.919229431E0,9.392967224E0,9.865968870E0
1.651894104E1,7.069798279E-1,2.923271027E0,9.304201813E0,9.778215857E0
1.652896754E1,6.228547668E-1,2.967279510E0,9.419911194E0,9.895828548E0
1.653899254E1,6.638694763E-1,3.018023987E0,9.740394745E0,1.021882974E1
1.654901754E1,6.956034851E-1,3.013683014E0,1.013437546E1,1.059583482E1
1.655904154E1,7.256909180E-1,2.972069550E0,1.051218979E1,1.094833133E1
1.656906654E1,7.894583130E-1,2.934647369E0,1.080258591E1,1.122190990E1
1.657909154E1,7.990383911E-1,2.917882233E0,1.100077377E1,1.140918589E1
1.658911654E1,7.461982727E-1,2.889591064E0,1.102637054E1,1.142310797E1
1.659914054E1,7.463479614E-1,2.850671997E0,1.097128510E1,1.136012600E1
1.660916554E1,7.217990112E-1,2.801125031E0,1.090078171E1,1.127804669E1
1.661919054E1,7.824229431E-1,2.619851990E0,1.087907684E1,1.121740269E1
1.662921454E1,9.160949707E-1,2.379451904E0,1.087802902E1,1.117284819E1
1.663923954E1,9.487271118E-1,2.211052094E0,1.086425766E1,1.112748530E1
1.664926454E1,9.550140381E-1,2.046394501E0,1.076396622E1,1.099830673E1
1.665928854E1,9.279203796E-1,1.945803680E0,1.067056046E1,1.088614021E1
1.666931354E1,9.460327148E-1,1.970951385E0,1.048838928E1,1.071381991E1
1.667933854E1,9.568103027E-1,2.013163605E0,1.020263351E1,1.044327747E1
1.668936254E1,9.111552429E-1,1.975292358E0,9.896370392E0,1.013262704E1
1.669938754E1,8.617579651E-1,1.925595703E0,9.660460968E0,9.888126805E0
1.670941254E1,7.592211914E-1,1.872605896E0,9.545500031E0,9.757030311E0
1.671943654E1,6.268963623E-1,1.775906982E0,9.510023804E0,9.694709764E0
1.672946154E1,5.203179932E-1,1.661395111E0,9.524393921E0,9.682202440E0
1.673948654E1,4.842430115E-1,1.577719116E0,9.552685089E0,9.694198333E0
1.674951054E1,3.275189209E-1,1.566941528E0,9.515861664E0,9.649569814E0
1.675953554E1,1.586700439E-1,1.558858337E0,9.343569946E0,9.474044271E0
1.676956054E1,4.101470947E-2,1.640887756E0,9.160051575E0,9.305951842E0
1.677958554E1,-2.260299683E-2,1.666185150E0,8.877289581E0,9.032328280E0
1.678960954E1,6.691085815E-2,1.775906982E0,8.527766418E0,8.710977142E0
1.679963454E1,1.315763855E-1,1.850302277E0,8.297694855E0,8.502509674E0
1.680965954E1,1.118174744E-1,1.934277649E0,8.197852478E0,8.423699806E0
1.681968354E1,9.834548950E-2,1.985321503E0,8.203540649E0,8.440927229E0
1.682970854E1,1.288819885E-1,1.985620880E0,8.318651276E0,8.553318648E0
1.683973354E1,1.609153748E-1,2.106719055E0,8.509205017E0,8.767595392E0
1.684975754E1,1.025367737E-1,2.279908905E0,8.691076813E0,8.985728383E0
1.685978254E1,8.068222046E-2,2.412982178E0,8.750503235E0,9.077461070E0
1.686980754E1,1.526824951E-1,2.489173737E0,8.788075104E0,9.135073172E0
1.687983154E1,2.456391907E-1,2.488125916E0,8.806636505E0,9.154668520E0
1.688985654E1,3.489244080E-1,2.395468597E0,8.806636505E0,9.133283340E0
