"Time (s)","Acceleration x (m/s^2)","Acceleration y (m/s^2)","Acceleration z (m/s^2)","Absolute acceleration (m/s^2)"
2.954958356E-3,-2.896476746E-1,1.769919434E0,9.727820892E0,9.891764751E0
1.293295831E-2,-2.588117981E-1,1.760489044E0,9.800569611E0,9.960796651E0
2.291195840E-2,-2.297721863E-1,1.762135620E0,9.773925018E0,9.934159625E0
3.289095836E-2,-2.902464294E-1,1.775158539E0,9.643995209E0,9.810304502E0
4.286995833E-2,-3.381468201E-1,1.813029785E0,9.485025787E0,9.662667047E0
5.284895829E-2,-3.614982605E-1,1.866019592E0,9.493258667E0,9.681666707E0
6.282795838E-2,-4.044589233E-1,1.881886597E0,9.523944855E0,9.716512223E0
7.280695834E-2,-4.102967834E-1,1.914668427E0,9.538314972E0,9.737235292E0
8.278595831E-2,-4.165837097E-1,1.918260956E0,9.577084351E0,9.776185951E0
9.276495839E-2,-3.906875610E-1,1.899998932E0,9.628277893E0,9.821729374E0
1.027429583E-1,-3.501219177E-1,1.902693329E0,9.614506531E0,9.807219947E0
1.127219583E-1,-3.185375977E-1,1.916165314E0,9.571545868E0,9.766659921E0
1.227009584E-1,-2.992277527E-1,1.932331696E0,9.549092560E0,9.747236108E0
1.326799584E-1,-2.743794250E-1,1.957778778E0,9.538614349E0,9.741321549E0
1.426589583E-1,-2.327659607E-1,1.960323486E0,9.516011353E0,9.718617197E0
1.526379583E-1,-1.995350647E-1,1.966610413E0,9.479038239E0,9.682950825E0
1.626169584E-1,-1.851649475E-1,1.979932709E0,9.437574463E0,9.644803333E0
1.725959583E-1,-1.959425354E-1,1.985022125E0,9.371561737E0,9.581486091E0
1.825739583E-1,-1.797761536E-1,1.994452515E0,9.387279053E0,9.598498232E0
1.925529584E-1,-1.531315613E-1,1.986219635E0,9.363478546E0,9.573048010E0
2.025319583E-1,-1.204994202E-1,1.962119751E0,9.373358002E0,9.577279063E0
2.125109583E-1,-1.154100037E-1,1.941313019E0,9.367669830E0,9.567405801E0
2.224899584E-1,-1.011895752E-1,1.928888855E0,9.387279053E0,9.583937581E0
2.324689584E-1,-1.173559570E-1,1.932930450E0,9.415121155E0,9.612205725E0
2.424479583E-1,-1.586700439E-1,1.926344147E0,9.423503723E0,9.619688164E0
2.524269583E-1,-1.616638184E-1,1.927242279E0,9.464219055E0,9.659805397E0
2.624049584E-1,-1.390608215E-1,1.952389984E0,9.509425049E0,9.708775892E0
2.723839583E-1,-1.456471252E-1,1.930685120E0,9.544302521E0,9.738709808E0
2.823629583E-1,-1.598675537E-1,1.901944885E0,9.575288086E0,9.763661911E0
2.923419584E-1,-1.767823792E-1,1.875000916E0,9.561067657E0,9.744788104E0
3.023209583E-1,-1.856140137E-1,1.826202393E0,9.556277618E0,9.730976809E0
3.122999583E-1,-1.950444031E-1,1.823807373E0,9.540410614E0,9.715129970E0
3.222789584E-1,-1.538800049E-1,1.842668152E0,9.506431274E0,9.684592947E0
3.322579584E-1,-1.172062683E-1,1.856888580E0,9.466015320E0,9.647135251E0
3.422369583E-1,-9.086105347E-2,1.849404144E0,9.432185669E0,9.612215037E0
3.522149584E-1,-7.035369873E-2,1.845362549E0,9.411229248E0,9.590701149E0
3.621939584E-1,-8.068222046E-2,1.827699280E0,9.394464111E0,9.570943016E0
3.721729583E-1,-1.245410156E-1,1.797162781E0,9.426647186E0,9.597238233E0
3.821519583E-1,-1.110690308E-1,1.811083832E0,9.512718201E0,9.684222661E0
3.921309584E-1,-6.017486572E-2,1.817819824E0,9.573491821E0,9.744733736E0
4.021099583E-1,-2.365081787E-2,1.846410370E0,9.645791473E0,9.820951266E0
4.120889583E-1,2.664459229E-2,1.849104767E0,9.666897583E0,9.842195246E0
4.220679584E-1,2.125579834E-2,1.821262665E0,9.651629333E0,9.821985456E0
4.320459584E-1,-1.182540894E-2,1.793121185E0,9.618398438E0,9.784120396E0
4.420249583E-1,-5.658233643E-2,1.780846710E0,9.567653961E0,9.732143592E0
4.520039584E-1,-5.688171387E-2,1.778302002E0,9.566306763E0,9.730355524E0
4.619829584E-1,-4.101470947E-2,1.800455933E0,9.579179993E0,9.747000211E0
4.719619583E-1,-1.990859985E-2,1.812730408E0,9.571994934E0,9.742149398E0
4.819409583E-1,-1.586700439E-2,1.818119202E0,9.643695831E0,9.813596613E0
4.919199584E-1,-3.832031250E-2,1.814376984E0,9.654772797E0,9.823852098E0
5.018989583E-1,-6.092330933E-2,1.814975739E0,9.647288361E0,9.816721515E0
5.118769583E-1,-3.502716064E-2,1.822160797E0,9.614207153E0,9.785421609E0
5.218559584E-1,-1.721420288E-2,1.829046478E0,9.612111511E0,9.784599892E0
5.318349584E-1,-5.703140259E-2,1.804647217E0,9.598340149E0,9.766685096E0
5.418139583E-1,-8.053253174E-2,1.816472626E0,9.552236023E0,9.723747803E0
5.517929584E-1,-9.595046997E-2,1.843715973E0,9.514813843E0,9.692274116E0
5.617719584E-1,-1.181044006E-1,1.870360565E0,9.454040222E0,9.638001547E0
5.717509583E-1,-9.175918579E-2,1.883982239E0,9.386530609E0,9.574171802E0
5.817299583E-1,-4.595443726E-2,1.888472900E0,9.410181427E0,9.597914159E0
5.917089584E-1,-1.407073975E-2,1.838177490E0,9.430389404E0,9.607878995E0
6.016869583E-1,-2.739303589E-2,1.751657410E0,9.478439484E0,9.638976559E0
6.116659583E-1,-8.532257080E-3,1.699116669E0,9.537117462E0,9.687294759E0
6.216449584E-1,3.293151855E-2,1.698667603E0,9.603429565E0,9.752559435E0
6.316239584E-1,4.176315308E-2,1.669328613E0,9.628277893E0,9.772007847E0
6.416029583E-1,6.122268677E-2,1.659898224E0,9.658365326E0,9.800154647E0
6.515819584E-1,1.022373962E-1,1.701661377E0,9.671388245E0,9.820481378E0
6.615609584E-1,1.260379028E-1,1.686842194E0,9.632469177E0,9.779866287E0
6.715399583E-1,1.261875916E-1,1.664239197E0,9.576485596E0,9.720838018E0
6.815179583E-1,1.329235840E-1,1.674717407E0,9.571096802E0,9.717419465E0
6.914969584E-1,1.444496155E-1,1.698667603E0,9.547445984E0,9.698456688E0
7.014759583E-1,9.580078125E-2,1.686692505E0,9.535470886E0,9.683972037E0
7.114549583E-1,-1.781295776E-2,1.667083282E0,9.527537384E0,9.672303375E0
7.214339584E-1,-1.076261902E-1,1.677262115E0,9.504335632E0,9.651797108E0
7.314129584E-1,-1.484912109E-1,1.707499237E0,9.513616333E0,9.666772937E0
7.413919583E-1,-1.410067749E-1,1.751058655E0,9.528884583E0,9.689464934E0
7.513709584E-1,-1.264869690E-1,1.741628265E0,9.562714233E0,9.720842118E0
7.613499584E-1,-9.370513916E-2,1.739682312E0,9.629625092E0,9.785957010E0
7.713279583E-1,-3.936813354E-2,1.739382935E0,9.701775055E0,9.856543109E0
7.813069583E-1,-2.724334717E-2,1.716779938E0,9.742490387E0,9.892633345E0
7.912859584E-1,-9.879455566E-3,1.713786163E0,9.743089142E0,9.892671360E0
8.012649583E-1,-8.382568359E-3,1.703307953E0,9.800719299E0,9.947634243E0
8.112439583E-1,-4.640350342E-3,1.679806824E0,9.830806732E0,9.973291007E0
8.212229584E-1,-3.787124634E-2,1.661544800E0,9.839937744E0,9.979305595E0
8.312019584E-1,-9.415420532E-2,1.652114410E0,9.799372101E0,9.938110515E0
8.411809583E-1,-1.011895752E-1,1.657802582E0,9.758507080E0,9.898838778E0
8.511589584E-1,-7.229965210E-2,1.661993866E0,9.703571320E0,9.845138252E0
8.611379584E-1,-3.652404785E-2,1.655706940E0,9.616003418E0,9.757572506E0
8.711169583E-1,-2.529739380E-2,1.628313904E0,9.570498047E0,9.708062577E0
8.810959583E-1,-1.676513672E-2,1.617835693E0,9.551188202E0,9.687252937E0
8.910749584E-1,2.963836670E-2,1.609902191E0,9.562564545E0,9.697180217E0
9.010539583E-1,5.209167480E-2,1.635049896E0,9.617799683E0,9.755930117E0
9.110329583E-1,1.007405090E-1,1.636397095E0,9.662406921E0,9.800512824E0
9.210119584E-1,1.133143616E-1,1.633253632E0,9.727521515E0,9.864331320E0
9.309909584E-1,1.011895752E-1,1.636995850E0,9.797126770E0,9.933463026E0
9.409689583E-1,7.559280396E-2,1.663191376E0,9.811796265E0,9.952048320E0
9.509479584E-1,5.029541016E-2,1.699715424E0,9.851912842E0,9.997587148E0
9.609269584E-1,3.891906738E-3,1.696122894E0,9.813442841E0,9.958941129E0
9.709059583E-1,-5.373825073E-2,1.711091766E0,9.772877197E0,9.921685923E0
9.808849583E-1,-4.595443726E-2,1.717827759E0,9.732012177E0,9.882565711E0
9.908639584E-1,7.933502197E-3,1.775008850E0,9.660760345E0,9.822474729E0
1.000842958E0,5.044509888E-2,1.791923676E0,9.632469177E0,9.797856787E0
1.010821958E0,7.364685059E-2,1.789977722E0,9.521250458E0,9.688325675E0
1.020799958E0,7.589218140E-2,1.802551575E0,9.480385437E0,9.650526402E0
1.030778958E0,6.152206421E-2,1.807191925E0,9.439670105E0,9.611300604E0
1.040757958E0,5.628295898E-2,1.820813599E0,9.432185669E0,9.606490328E0
1.050736958E0,8.083190918E-2,1.812131653E0,9.415719910E0,9.588854798E0
1.060715958E0,9.190887451E-2,1.813029785E0,9.381441193E0,9.555467707E0
1.070694958E0,9.475296021E-2,1.806293793E0,9.387877808E0,9.560540001E0
1.080673958E0,6.391708374E-2,1.786385193E0,9.382189636E0,9.550954917E0
1.090652958E0,-1.437011719E-2,1.715133362E0,9.418563995E0,9.573465239E0
1.100630958E0,-4.954696655E-2,1.730401611E0,9.472302246E0,9.629187633E0
1.110609958E0,-9.580078125E-3,1.775457916E0,9.598190460E0,9.761024675E0
1.120588958E0,1.646575928E-2,1.769320679E0,9.646988983E0,9.807913296E0
1.130567958E0,1.002914429E-2,1.727856903E0,9.676178284E0,9.829242913E0
1.140546958E0,3.293151855E-2,1.679357758E0,9.703271942E0,9.847579060E0
1.150525958E0,6.481521606E-2,1.651365967E0,9.715097351E0,9.854660172E0
1.160504958E0,7.993377686E-2,1.598376160E0,9.726473694E0,9.857255514E0
1.170483958E0,9.954299927E-2,1.576820984E0,9.682165833E0,9.810229785E0
1.180462958E0,9.864486694E-2,1.576521606E0,9.614955597E0,9.743845356E0
1.190440958E0,9.116043091E-2,1.542991333E0,9.543554077E0,9.667913782E0
1.200419958E0,7.259902954E-2,1.548080750E0,9.443711700E0,9.570032148E0
1.210398958E0,6.017486572E-2,1.554068298E0,9.409432983E0,9.537094860E0
1.220377958E0,3.996688843E-2,1.595232697E0,9.395811310E0,9.530353345E0
1.230356958E0,-4.490661621E-4,1.618434448E0,9.429790649E0,9.567668575E0
1.240335958E0,9.280700684E-3,1.655407562E0,9.504784698E0,9.647869842E0
1.250314958E0,5.179229736E-2,1.694476318E0,9.601782990E0,9.750290714E0
1.260293958E0,1.044827271E-1,1.716630249E0,9.606573029E0,9.759302301E0
1.270272958E0,1.320254517E-1,1.728455658E0,9.620643768E0,9.775570377E0
1.280250958E0,1.947450256E-1,1.744472351E0,9.626481628E0,9.785206076E0
1.290229958E0,2.146536255E-1,1.733096008E0,9.637408905E0,9.794352881E0
1.300208958E0,1.806742859E-1,1.725611572E0,9.652527466E0,9.807225141E0
1.310187958E0,1.285826111E-1,1.707199860E0,9.640702057E0,9.791537213E0
1.320166958E0,5.388793945E-2,1.700763245E0,9.660311279E0,9.809032243E0
1.330145958E0,6.286926270E-3,1.704206085E0,9.652377777E0,9.801671014E0
1.340124958E0,-2.963836670E-2,1.709295502E0,9.671537933E0,9.821467077E0
1.350103958E0,-5.104385376E-2,1.716630249E0,9.679022369E0,9.830203401E0
1.360081958E0,-4.849914551E-2,1.716031494E0,9.701325989E0,9.852047614E0
1.370060958E0,-6.930587769E-2,1.694326630E0,9.717791748E0,9.864634940E0
1.380039958E0,-1.621128845E-1,1.695524139E0,9.790540466E0,9.937593538E0
1.390018958E0,-9.280700684E-2,1.681303711E0,9.753417664E0,9.897704351E0
1.399997958E0,-2.589614868E-2,1.604663086E0,9.554181976E0,9.688034242E0
1.409976958E0,-5.927673340E-2,1.617236938E0,9.542057190E0,9.678317233E0
1.419955958E0,1.496887207E-4,1.675615540E0,9.589209137E0,9.734506630E0
1.429934958E0,1.661544800E-2,1.685944061E0,9.602232056E0,9.749130418E0
1.439912958E0,-4.939727783E-3,1.666634216E0,9.567803650E0,9.711877300E0
1.449891958E0,-1.916015625E-2,1.629661102E0,9.529932404E0,9.668287027E0
1.459870958E0,-3.502716064E-2,1.639390869E0,9.487420807E0,9.628083033E0
1.469849958E0,-6.152206421E-2,1.637893982E0,9.455387421E0,9.596396873E0
1.479828958E0,-5.628295898E-2,1.666634216E0,9.449399872E0,9.595415328E0
1.489807958E0,-8.068222046E-2,1.704804840E0,9.456734619E0,9.609510852E0
1.499786958E0,-9.490264893E-2,1.729353790E0,9.435927887E0,9.593560660E0
1.509765958E0,-1.374142456E-1,1.723665619E0,9.424401855E0,9.581714678E0
1.519744958E0,-1.083746338E-1,1.739532623E0,9.421408081E0,9.581265524E0
1.529722958E0,-9.864486694E-2,1.753753052E0,9.432634735E0,9.594789139E0
1.539701958E0,-9.340576172E-2,1.761836243E0,9.452842712E0,9.616081683E0
1.549680958E0,-1.187031555E-1,1.730251923E0,9.469009094E0,9.626525613E0
1.559659958E0,-1.582209778E-1,1.721719666E0,9.487121429E0,9.643382472E0
1.569638958E0,-1.567240906E-1,1.756297760E0,9.524543610E0,9.686386077E0
1.579617958E0,-1.830693054E-1,1.778152313E0,9.561965790E0,9.727616861E0
1.589596958E0,-1.989363098E-1,1.756746826E0,9.609866180E0,9.771144410E0
1.599575958E0,-1.767823792E-1,1.739083557E0,9.707912292E0,9.864036938E0
1.609553958E0,-1.869612122E-1,1.733245697E0,9.735754395E0,9.890602043E0
1.619532958E0,-2.056723022E-1,1.697919159E0,9.785301361E0,9.933647532E0
1.629511958E0,-1.673519897E-1,1.710792389E0,9.769584045E0,9.919656733E0
1.639490958E0,-1.273851013E-1,1.758992157E0,9.740245056E0,9.898618799E0
1.649469958E0,-1.115180969E-1,1.796564026E0,9.686207428E0,9.852040039E0
1.659448958E0,-1.028361511E-1,1.806593170E0,9.674831085E0,9.842596745E0
1.669427958E0,-1.115180969E-1,1.832489319E0,9.647737427E0,9.820859985E0
1.679406958E0,-1.502874756E-1,1.809287567E0,9.633217621E0,9.802805188E0
1.689385958E0,-1.916015625E-1,1.788181458E0,9.609866180E0,9.776698425E0
1.699363958E0,-2.013313293E-1,1.806892548E0,9.584269409E0,9.755184011E0
1.709342958E0,-2.634521484E-1,1.798809357E0,9.561367035E0,9.732669814E0
1.719321958E0,-3.007246399E-1,1.776356049E0,9.523196411E0,9.692117726E0
1.729300958E0,-3.014730835E-1,1.771566010E0,9.493108978E0,9.661700172E0
1.739279958E0,-2.974314880E-1,1.730700989E0,9.512718201E0,9.673448143E0
1.749258958E0,-3.243754578E-1,1.683549042E0,9.559870148E0,9.712397956E0
1.759237958E0,-2.980302429E-1,1.651964722E0,9.551487579E0,9.697872161E0
1.769216958E0,-2.821632385E-1,1.642983398E0,9.619595947E0,9.762972740E0
1.779194958E0,-2.219883728E-1,1.674567719E0,9.578730927E0,9.726538030E0
1.789173958E0,-1.785786438E-1,1.710043945E0,9.576635284E0,9.729752515E0
1.799152958E0,-1.678010559E-1,1.734592896E0,9.515262909E0,9.673530789E0
1.809131958E0,-1.311273193E-1,1.754501495E0,9.459578705E0,9.621803321E0
1.819110958E0,-3.772155762E-2,1.806293793E0,9.403445435E0,9.575432430E0
1.829089958E0,5.104385376E-2,1.835782471E0,9.375154266E0,9.553335557E0
1.839068958E0,1.071771240E-1,1.835034027E0,9.361532593E0,9.540289791E0
1.849047958E0,1.706451416E-1,1.814376984E0,9.348958740E0,9.524920636E0
1.859025958E0,1.835183716E-1,1.785037994E0,9.356143799E0,9.526671319E0
1.869004958E0,2.174977112E-1,1.767075348E0,9.381890259E0,9.549331148E0
1.878983958E0,1.987866211E-1,1.748214569E0,9.377549286E0,9.541184461E0
1.888962958E0,1.357676697E-1,1.709445190E0,9.364825745E0,9.520535539E0
1.898941958E0,8.696914673E-2,1.668580170E0,9.427994385E0,9.574904779E0
1.908920958E0,1.077758789E-2,1.646276550E0,9.458830261E0,9.601031848E0
1.918899958E0,-3.592529297E-2,1.630259857E0,9.534123688E0,9.672566998E0
1.928878958E0,-5.867797852E-2,1.655108185E0,9.605674896E0,9.747400496E0
1.938857958E0,-8.831634521E-3,1.690285034E0,9.614805908E0,9.762255587E0
1.948835958E0,3.921844482E-2,1.716929626E0,9.664203186E0,9.815610457E0
1.958814958E0,8.517288208E-2,1.687590637E0,9.689500580E0,9.835732716E0
1.968793958E0,9.325607300E-2,1.666334839E0,9.760153656E0,9.901816393E0
1.978772958E0,1.013392639E-1,1.640588379E0,9.779463501E0,9.916637850E0
1.988751958E0,1.342707825E-1,1.649869080E0,9.834698639E0,9.973033337E0
1.998730958E0,1.441502380E-1,1.648072815E0,9.891280975E0,1.002867701E1
2.008709958E0,1.453477478E-1,1.680854645E0,9.888436890E0,1.003133004E1
2.018688958E0,1.408570862E-1,1.694326630E0,9.850116577E0,9.995768106E0
2.028666958E0,9.969268799E-2,1.664538574E0,9.876012726E0,1.001580025E1
2.038645958E0,6.346801758E-2,1.622625732E0,9.877808990E0,1.001039724E1
2.048624958E0,1.212478638E-2,1.565444641E0,9.925709381E0,1.004840637E1
2.058603958E0,8.382568359E-3,1.551074524E0,9.978549500E0,1.009838366E1
2.068582958E0,5.942642212E-2,1.539249115E0,1.005399261E1,1.017131195E1
2.078561958E0,7.604187012E-2,1.506018219E0,1.007405090E1,1.018628366E1
2.088540958E0,6.436614990E-2,1.432820435E0,1.005713608E1,1.015889283E1
2.098519958E0,9.011260986E-2,1.408720551E0,1.002630020E1,1.012518195E1
2.108497958E0,1.353186035E-1,1.429527283E0,9.994865570E0,1.009748469E1
2.118476958E0,1.675016785E-1,1.483265533E0,9.873468018E0,9.985664933E0
2.128455958E0,1.856140137E-1,1.548529816E0,9.754166107E0,9.878064264E0
2.138434958E0,1.800755310E-1,1.621428223E0,9.592202911E0,9.729944161E0
2.148413958E0,1.269360352E-1,1.685494995E0,9.463171234E0,9.612940026E0
2.158392958E0,6.586303711E-2,1.745071106E0,9.342671814E0,9.504479351E0
2.168371958E0,2.918930054E-2,1.800755310E0,9.296867065E0,9.469704797E0
2.178350958E0,2.799179077E-2,1.858235779E0,9.291777649E0,9.475808970E0
2.188329958E0,6.586303711E-2,1.902094574E0,9.306896210E0,9.499506238E0
2.198307958E0,1.508862305E-1,1.906734924E0,9.331594849E0,9.525600619E0
2.208286958E0,2.222877502E-1,1.920506287E0,9.362730103E0,9.560254767E0
2.218265958E0,2.682421875E-1,1.891466675E0,9.355994110E0,9.549043190E0
2.228244958E0,2.712359619E-1,1.865121460E0,9.361083527E0,9.548933543E0
2.238223958E0,2.691403198E-1,1.835034027E0,9.372459869E0,9.554202761E0
2.248202958E0,2.927911377E-1,1.843117218E0,9.425000610E0,9.607988563E0
2.258181958E0,3.023712158E-1,1.834135895E0,9.427695007E0,9.609209956E0
2.268160958E0,2.944377136E-1,1.788630524E0,9.431287537E0,9.603909481E0
2.278138958E0,2.603086853E-1,1.730401611E0,9.431287537E0,9.592248691E0
2.288117958E0,2.481838989E-1,1.689087524E0,9.448801117E0,9.601794335E0
2.298096958E0,2.751278687E-1,1.695673828E0,9.519603882E0,9.673358421E0
2.308075958E0,2.647993469E-1,1.695973206E0,9.517657928E0,9.671207590E0
2.318054958E0,2.659968567E-1,1.686842194E0,9.526190186E0,9.678041660E0
2.328033958E0,2.805166626E-1,1.709295502E0,9.494007111E0,9.650728041E0
2.338012958E0,2.818638611E-1,1.770667877E0,9.449848938E0,9.618438383E0
2.347991958E0,2.272274780E-1,1.773811340E0,9.394913177E0,9.563599354E0
2.357970958E0,1.395098877E-1,1.747615814E0,9.326804810E0,9.490148155E0
2.367948958E0,1.145118713E-1,1.757644958E0,9.322763214E0,9.487694278E0
2.377927958E0,1.378633118E-1,1.763482819E0,9.331594849E0,9.497765019E0
2.387906958E0,1.939965820E-1,1.802252197E0,9.350904694E0,9.524975918E0
2.397885958E0,2.263293457E-1,1.827250214E0,9.396260376E0,9.574955737E0
2.407864958E0,2.390528870E-1,1.829196167E0,9.399553528E0,9.578867961E0
2.417843958E0,2.302212524E-1,1.822909241E0,9.471853180E0,9.648419694E0
2.427822958E0,2.124082947E-1,1.814227295E0,9.474547577E0,9.649020144E0
2.437801958E0,1.543290710E-1,1.803599396E0,9.477092285E0,9.648423002E0
2.447779958E0,8.053253174E-2,1.794767761E0,9.498048706E0,9.666468126E0
2.457758958E0,4.640350342E-3,1.787582703E0,9.504784698E0,9.671422109E0
2.467737958E0,-4.685256958E-2,1.789229279E0,9.560917969E0,9.727008223E0
2.477716958E0,-4.909790039E-2,1.834734650E0,9.612111511E0,9.785772813E0
2.487695958E0,-1.398092651E-1,1.789528656E0,9.649084625E0,9.814621416E0
2.497674958E0,-2.511776733E-1,1.744622040E0,9.675130463E0,9.834375718E0
2.507653958E0,-2.689906311E-1,1.706002350E0,9.755513306E0,9.907211506E0
2.517632958E0,-1.962419128E-1,1.701811066E0,9.821675720E0,9.969954150E0
2.527610958E0,-1.031355286E-1,1.684896240E0,9.876761169E0,1.001997622E1
2.537589958E0,-3.457809448E-2,1.658700714E0,9.909992065E0,1.004790657E1
2.547568958E0,4.999603271E-2,1.632654877E0,9.880353699E0,1.001446208E1
2.557547958E0,1.483415222E-1,1.655257874E0,9.827214203E0,9.966745849E0
2.567526958E0,1.857637024E-1,1.677262115E0,9.764794006E0,9.909536737E0
2.577505958E0,1.731898499E-1,1.668430481E0,9.671687622E0,9.816068279E0
2.587484958E0,1.303788757E-1,1.630409546E0,9.582323456E0,9.720913370E0
2.597463958E0,5.074447632E-2,1.608405304E0,9.560917969E0,9.695395558E0
2.607442958E0,-1.002914429E-2,1.609752502E0,9.570048981E0,9.704495927E0
2.617420958E0,-3.592529297E-2,1.600621490E0,9.590107269E0,9.722830720E0
2.627399958E0,-3.981719971E-2,1.623523865E0,9.630672913E0,9.766640973E0
2.637378958E0,-5.433700562E-2,1.619033203E0,9.640851746E0,9.776003447E0
2.647357958E0,-6.152206421E-2,1.650617523E0,9.604776764E0,9.745771383E0
2.657336958E0,-5.044509888E-2,1.680704956E0,9.587412872E0,9.733745396E0
2.667315958E0,4.640350342E-3,1.733096008E0,9.563312988E0,9.719084248E0
2.677294958E0,3.472778320E-2,1.775757294E0,9.538764038E0,9.702707836E0
2.687273958E0,3.143463135E-2,1.776505737E0,9.516460419E0,9.680907998E0
2.697251958E0,2.859054565E-2,1.795366516E0,9.470955048E0,9.639665340E0
2.707230958E0,2.050735474E-2,1.806293793E0,9.487869873E0,9.658301742E0
2.717209958E0,-2.454895020E-2,1.784588928E0,9.487869873E0,9.654275479E0
2.727188958E0,-5.209167480E-2,1.798509979E0,9.516161041E0,9.684764977E0
2.737167958E0,-5.179229736E-2,1.806593170E0,9.563462677E0,9.732742661E0
2.747146958E0,-4.670288086E-2,1.797162781E0,9.593699799E0,9.760689066E0
2.757125958E0,-8.083190918E-3,1.808688812E0,9.627230072E0,9.795661255E0
2.767104958E0,3.382965088E-2,1.800455933E0,9.649683380E0,9.816270949E0
2.777082958E0,2.634521484E-2,1.756447449E0,9.646839294E0,9.805473476E0
2.787061458E0,3.772155762E-2,1.751058655E0,9.658964081E0,9.816476784E0
2.797040458E0,3.637435913E-2,1.724264374E0,9.682315521E0,9.834716294E0
2.807019458E0,4.760101318E-2,1.687141571E0,9.734556885E0,9.879793028E0
2.816998458E0,7.214996338E-2,1.650767212E0,9.767638092E0,9.906411656E0
2.826977458E0,5.643264771E-2,1.586550751E0,9.782008209E0,9.909995587E0
2.836956458E0,8.966354370E-2,1.584155731E0,9.718989258E0,9.847656631E0
2.846935458E0,1.285826111E-1,1.602717133E0,9.668394470E0,9.801177854E0
2.856914458E0,1.193019104E-1,1.595831451E0,9.596244507E0,9.728762491E0
2.866892458E0,1.447489929E-1,1.617985382E0,9.530381470E0,9.667833259E0
2.876871458E0,1.619631958E-1,1.650467834E0,9.526190186E0,9.669466149E0
2.886850458E0,1.615141296E-1,1.671873322E0,9.495354309E0,9.642769347E0
2.896829458E0,1.499880981E-1,1.684447174E0,9.507778473E0,9.657003169E0
2.906808458E0,1.612147522E-1,1.714983673E0,9.506281586E0,9.661084245E0
2.916787458E0,1.106199646E-1,1.742376709E0,9.498797150E0,9.657911817E0
2.926766458E0,6.047424316E-2,1.742975464E0,9.454489288E0,9.613999600E0
2.936745458E0,7.484436035E-4,1.747316437E0,9.465865631E0,9.625784510E0
2.946723458E0,-1.960922241E-2,1.766326904E0,9.505533142E0,9.668270557E0
2.956702458E0,1.197509766E-2,1.794767761E0,9.525292053E0,9.692910988E0
2.966681458E0,-3.817062378E-2,1.808090057E0,9.605674896E0,9.774437931E0
2.976660458E0,-9.624984741E-2,1.801503754E0,9.638456726E0,9.805841518E0
2.986639458E0,-1.425036621E-1,1.800156555E0,9.662855988E0,9.830140220E0
2.996618458E0,-1.613644409E-1,1.829794922E0,9.664203186E0,9.837225786E0
3.006597458E0,-1.553768921E-1,1.845512238E0,9.685458984E0,9.860941798E0
3.016576458E0,-1.547781372E-1,1.845661926E0,9.655371552E0,9.831410073E0
3.026555458E0,-1.040336609E-1,1.830393677E0,9.673932953E0,9.846123237E0
3.036533458E0,-5.927673340E-2,1.811832275E0,9.672735443E0,9.841141239E0
3.046512458E0,-6.361770630E-2,1.771116943E0,9.689650269E0,9.850392112E0
3.056491458E0,-3.891906738E-2,1.732347565E0,9.687404938E0,9.841156294E0
3.066470458E0,1.077758789E-2,1.768721924E0,9.660161591E0,9.820754317E0
3.076449458E0,6.721023560E-2,1.788331146E0,9.619446259E0,9.784497525E0
3.086428458E0,9.819580078E-2,1.755699005E0,9.548194427E0,9.708766051E0
3.096407458E0,9.714797974E-2,1.717378693E0,9.490115204E0,9.644745403E0
3.106386458E0,9.684860229E-2,1.687440948E0,9.462273102E0,9.612047069E0
3.116364458E0,8.711883545E-2,1.673519897E0,9.394464111E0,9.542757174E0
3.126343458E0,2.350112915E-2,1.667532349E0,9.339977417E0,9.487697012E0
3.136322458E0,-1.496887207E-2,1.673519897E0,9.328451385E0,9.477388784E0
3.146301458E0,-8.083190918E-3,1.711840210E0,9.304052124E0,9.460224531E0
3.156280458E0,-1.212478638E-2,1.728904724E0,9.268276520E0,9.428160383E0
3.166259458E0,-4.460723877E-2,1.727557526E0,9.235494690E0,9.395786661E0
3.176238458E0,-7.110214233E-2,1.726210327E0,9.234446869E0,9.394672245E0
3.186217458E0,-7.694000244E-2,1.739682312E0,9.256451111E0,9.418826969E0
3.196196458E0,-1.089733887E-1,1.736239471E0,9.262438660E0,9.424392427E0
3.206174458E0,-1.148112488E-1,1.731150055E0,9.293424225E0,9.453983074E0
3.216153458E0,-7.948471069E-2,1.723366241E0,9.350156250E0,9.507982484E0
3.226132458E0,-2.574645996E-2,1.746268616E0,9.419162750E0,9.579704791E0
3.236111458E0,2.799179077E-2,1.767075348E0,9.494156799E0,9.657243507E0
3.246090458E0,7.559280396E-2,1.757345581E0,9.586365051E0,9.746403063E0
3.256069458E0,1.089733887E-1,1.748513947E0,9.651030579E0,9.808749535E0
3.266048458E0,1.158590698E-1,1.740281067E0,9.706864471E0,9.862313085E0
3.276027458E0,1.308279419E-1,1.749262390E0,9.771679688E0,9.927877859E0
3.286005458E0,1.276844788E-1,1.736389160E0,9.833800507E0,9.986740361E0
3.295984458E0,7.544311523E-2,1.656904449E0,9.916129303E0,1.005388703E1
3.305963458E0,3.098556519E-2,1.631457367E0,1.000115250E1,1.013339353E1
3.315942458E0,3.502716064E-2,1.599573669E0,1.007015900E1,1.019646826E1
3.325921458E0,4.131408691E-2,1.548829193E0,1.017973114E1,1.029696581E1
3.335900458E0,-6.930587769E-2,1.468446350E0,1.021356079E1,1.031881592E1
3.345879458E0,-1.254391479E-1,1.434766388E0,1.021745270E1,1.031846060E1
3.355858458E0,-1.559756470E-1,1.437460785E0,1.019664597E1,1.029865092E1
3.365837458E0,-2.052232361E-1,1.463057556E0,1.009800110E1,1.020550245E1
3.375815458E0,-2.372566223E-1,1.490600281E0,9.969268799E0,1.008288155E1
3.385794458E0,-2.704875183E-1,1.488354950E0,9.791588287E0,9.907752780E0
3.395773458E0,-2.722837830E-1,1.509461060E0,9.646839294E0,9.768015127E0
3.405752458E0,-2.600093079E-1,1.540296936E0,9.511820068E0,9.639234436E0
3.415731458E0,-2.933898926E-1,1.577719116E0,9.468560028E0,9.603588092E0
3.425710458E0,-2.444416809E-1,1.618434448E0,9.419462128E0,9.560614445E0
3.435689458E0,-2.115101624E-1,1.703307953E0,9.395661621E0,9.551149241E0
3.445668458E0,-2.157014465E-1,1.753154297E0,9.361981659E0,9.527160001E0
3.455646458E0,-1.823208618E-1,1.803599396E0,9.334888000E0,9.509276821E0
3.465625458E0,-1.366658020E-1,1.868564301E0,9.336085510E0,9.522221523E0
3.475604458E0,-8.861572266E-2,1.904339905E0,9.323661346E0,9.516565774E0
3.485583458E0,-4.460723877E-2,1.894310760E0,9.298064575E0,9.489173194E0
3.495562458E0,-1.960922241E-2,1.874402161E0,9.311237183E0,9.498047476E0
3.505541458E0,-3.592529297E-3,1.841021576E0,9.337582397E0,9.517343031E0
3.515520458E0,3.891906738E-3,1.824406128E0,9.339079285E0,9.515612159E0
3.525499458E0,1.945953369E-2,1.801952820E0,9.401948547E0,9.573089842E0
3.535477458E0,8.008346558E-2,1.782642975E0,9.510622559E0,9.676578465E0
3.545456458E0,1.514849854E-1,1.789378967E0,9.596244507E0,9.762824050E0
3.555435458E0,1.769320679E-1,1.742526398E0,9.616901550E0,9.775095837E0
3.565414458E0,1.826202393E-1,1.696122894E0,9.622889099E0,9.772930862E0
3.575393458E0,2.031275940E-1,1.665736084E0,9.631271667E0,9.776365964E0
3.585372458E0,2.032772827E-1,1.650617523E0,9.629774780E0,9.772329414E0
3.595351458E0,2.263293457E-1,1.689985657E0,9.640702057E0,9.790322397E0
3.605330458E0,2.189945984E-1,1.682650909E0,9.643845520E0,9.791988007E0
3.615309458E0,1.550775146E-1,1.650018768E0,9.631571045E0,9.773114742E0
3.625287458E0,7.723937988E-2,1.607357483E0,9.655221863E0,9.788405040E0
3.635266458E0,4.236190796E-2,1.601819000E0,9.707014160E0,9.838381094E0
3.645245458E0,4.191284180E-3,1.594334564E0,9.733059998E0,9.862777357E0
3.655224458E0,-3.981719971E-2,1.570683746E0,9.767937469E0,9.893494592E0
3.665203458E0,-2.200424194E-2,1.578018494E0,9.770332489E0,9.896970420E0
3.675182458E0,3.592529297E-3,1.622775421E0,9.717192993E0,9.851763935E0
3.685161458E0,4.790039062E-3,1.621727600E0,9.679770813E0,9.814682183E0
3.695140458E0,1.182540894E-2,1.623972931E0,9.604776764E0,9.741106950E0
3.705118458E0,6.286926270E-3,1.656305695E0,9.570348358E0,9.712618379E0
3.715097458E0,2.380050659E-2,1.691781921E0,9.507628784E0,9.657002518E0
3.725076458E0,9.535171509E-2,1.728455658E0,9.477391663E0,9.634189309E0
3.735055458E0,1.440005493E-1,1.759291534E0,9.409582672E0,9.573718657E0
3.745034458E0,1.556762695E-1,1.743274841E0,9.375753021E0,9.537713929E0
3.755013458E0,1.905537415E-1,1.729353790E0,9.337732086E0,9.498432280E0
3.764992458E0,2.296224976E-1,1.733844452E0,9.345964966E0,9.508207203E0
3.774971458E0,2.559677124E-1,1.709594879E0,9.349108429E0,9.507579215E0
3.784951083E0,2.850073242E-1,1.703457642E0,9.397906952E0,9.555294458E0
3.794929083E0,2.692900085E-1,1.682201843E0,9.444011078E0,9.596440246E0
3.804908083E0,2.806663513E-1,1.644929352E0,9.481582947E0,9.627303950E0
3.814887083E0,3.004252625E-1,1.627864838E0,9.589358826E0,9.731187078E0
3.824866083E0,3.038681030E-1,1.591191101E0,9.664652252E0,9.799475909E0
3.834845083E0,2.972817993E-1,1.504671021E0,9.685159607E0,9.805851720E0
3.844824083E0,3.126997375E-1,1.500479736E0,9.653275909E0,9.774198502E0
3.854803083E0,3.632945251E-1,1.483564911E0,9.601034546E0,9.721770009E0
3.864782083E0,3.653901672E-1,1.461860046E0,9.503886566E0,9.622598642E0
3.874760083E0,3.421884155E-1,1.465602264E0,9.420360260E0,9.539825488E0
3.884739083E0,2.552192688E-1,1.488205261E0,9.364226990E0,9.485179961E0
3.894718083E0,8.143066406E-2,1.492396545E0,9.333840179E0,9.452748325E0
3.904697083E0,-6.721023560E-2,1.500779114E0,9.334888000E0,9.454998104E0
3.914676083E0,-1.184037781E-1,1.532363434E0,9.408385162E0,9.533093334E0
3.924655083E0,-1.435514832E-1,1.587748260E0,9.487570496E0,9.620579269E0
3.934634083E0,-1.451980591E-1,1.601070557E0,9.526339874E0,9.661038288E0
3.944613083E0,-1.425036621E-1,1.578317871E0,9.576186218E0,9.706427617E0
3.954592083E0,-9.460327148E-2,1.610950012E0,9.617949371E0,9.752387391E0
3.964570083E0,-2.095642090E-2,1.656754761E0,9.680219879E0,9.820994472E0
3.974549083E0,2.499801636E-2,1.671573944E0,9.726174316E0,9.868801912E0
3.984528083E0,6.616241455E-2,1.695224762E0,9.698032837E0,9.845303721E0
3.994507083E0,4.311035156E-2,1.712289276E0,9.657167816E0,9.807888830E0
4.004486083E0,1.092727661E-2,1.722617798E0,9.651779022E0,9.804303635E0
4.014465083E0,-5.523513794E-2,1.701212311E0,9.657167816E0,9.806021848E0
4.024444083E0,-1.392105103E-1,1.642833710E0,9.727521515E0,9.866253442E0
4.034423083E0,-1.766326904E-1,1.590891724E0,9.783954163E0,9.914025148E0
4.044401083E0,-1.664538574E-1,1.575324097E0,9.861941986E0,9.988355852E0
4.054380083E0,-9.804611206E-2,1.583257599E0,9.943073273E0,1.006881442E1
4.064359083E0,-1.871109009E-2,1.571881256E0,9.955347748E0,1.007869583E1
4.074338083E0,5.493576050E-2,1.535506897E0,9.916129303E0,1.003446161E1
4.084317083E0,1.133143616E-1,1.521735535E0,9.857601013E0,9.975009620E0
4.094296083E0,1.333726501E-1,1.451980591E0,9.794132996E0,9.902074380E0
4.104275083E0,1.428030396E-1,1.416953430E0,9.741741943E0,9.845287493E0
4.114254083E0,1.351689148E-1,1.409468994E0,9.770182800E0,9.872251285E0
4.124233083E0,1.040336609E-1,1.365161133E0,9.787846069E0,9.883138095E0
4.134211083E0,4.849914551E-2,1.352437592E0,9.818981323E0,9.911802754E0
4.144190083E0,-1.212478638E-2,1.357976074E0,9.803563385E0,9.897176419E0
4.154169083E0,-7.439529419E-2,1.373543701E0,9.779164124E0,9.875434568E0
4.164148083E0,-9.520202637E-2,1.403481445E0,9.707762604E0,9.809152785E0
4.174127083E0,-8.741821289E-2,1.462458801E0,9.693093109E0,9.803187324E0
4.184106083E0,-8.607101440E-2,1.518143005E0,9.655521240E0,9.774520798E0
4.194085083E0,-1.146615601E-1,1.541644135E0,9.623787231E0,9.747158283E0
4.204064083E0,-1.621128845E-1,1.543590088E0,9.611063690E0,9.735578884E0
4.214043083E0,-1.957928467E-1,1.538949738E0,9.625882874E0,9.750093447E0
4.224021083E0,-2.251318359E-1,1.593586121E0,9.617949371E0,9.751674276E0
4.234000083E0,-2.163002014E-1,1.642833710E0,9.600884857E0,9.742827024E0
4.243979083E0,-1.989363098E-1,1.674418030E0,9.579179993E0,9.726455712E0
4.253958083E0,-1.754351807E-1,1.681603088E0,9.577982483E0,9.726063690E0
4.263937083E0,-1.315763855E-1,1.664388885E0,9.559870148E0,9.704566963E0
4.273916083E0,-7.768844604E-2,1.636247406E0,9.553882599E0,9.693297364E0
4.283895083E0,2.320175171E-2,1.649270325E0,9.550290070E0,9.691680522E0
4.293874083E0,1.107696533E-1,1.631307678E0,9.556876373E0,9.695737242E0
4.303852083E0,2.085163879E-1,1.583856354E0,9.515262909E0,9.648435534E0
4.313831083E0,2.874023438E-1,1.534309387E0,9.498348083E0,9.625763436E0
4.323810083E0,3.471281433E-1,1.503623199E0,9.499096527E0,9.623627980E0
4.333789083E0,4.177812195E-1,1.477277985E0,9.478738861E0,9.602259202E0
4.343768083E0,4.587959290E-1,1.442101135E0,9.518556061E0,9.638104527E0
4.353747083E0,4.337979126E-1,1.407672729E0,9.548194427E0,9.661145893E0
4.363726083E0,3.243754578E-1,1.354533234E0,9.559121704E0,9.660061463E0
4.373705083E0,1.842668152E-1,1.319955139E0,9.573192444E0,9.665518579E0
4.383684083E0,9.490264893E-2,1.305734711E0,9.608219604E0,9.697001269E0
4.393662083E0,1.796264648E-3,1.316512299E0,9.639354858E0,9.728842169E0
4.403641083E0,-5.792953491E-2,1.376537476E0,9.707313538E0,9.804598277E0
4.413620083E0,-8.083190918E-2,1.439855804E0,9.761650543E0,9.867600512E0
4.423599083E0,-1.020877075E-1,1.483864288E0,9.802964630E0,9.915159639E0
4.433578083E0,-1.005908203E-1,1.513652344E0,9.848919067E0,9.965062405E0
4.443557083E0,-5.568420410E-2,1.561702423E0,9.905052338E0,1.002756586E1
4.453536083E0,-7.888595581E-2,1.530118103E0,9.940229187E0,1.005761605E1
4.463515083E0,-1.002914429E-1,1.516047363E0,9.931247864E0,1.004679760E1
4.473493083E0,-9.355545044E-2,1.566791840E0,9.923464050E0,1.004682677E1
4.483472083E0,-6.496490479E-2,1.624571686E0,9.872120819E0,1.000510985E1
4.493451083E0,-2.260299683E-2,1.696871338E0,9.823022919E0,9.968533618E0
4.503430083E0,1.511856079E-2,1.752705231E0,9.762099609E0,9.918205129E0
4.513409083E0,-5.987548828E-4,1.736688538E0,9.705367584E0,9.859525718E0
4.523388083E0,-6.286926270E-3,1.711989899E0,9.635013885E0,9.785930794E0
4.533367083E0,3.367996216E-2,1.691482544E0,9.554181976E0,9.702816126E0
4.543346083E0,7.035369873E-2,1.664688263E0,9.510023804E0,9.654879047E0
4.553325083E0,1.303788757E-1,1.639839935E0,9.440268860E0,9.582523144E0
4.563303083E0,1.815724182E-1,1.630409546E0,9.412426758E0,9.554317417E0
4.573282083E0,2.074685669E-1,1.616039429E0,9.382339325E0,9.522757891E0
4.583261083E0,2.418969727E-1,1.604663086E0,9.360634460E0,9.500259747E0
4.593240083E0,2.415975952E-1,1.589694214E0,9.354497223E0,9.491686646E0
4.603219083E0,2.418969727E-1,1.584455109E0,9.369017029E0,9.505129785E0
4.613198083E0,2.344125366E-1,1.566043396E0,9.386979675E0,9.519602333E0
4.623177083E0,2.288740540E-1,1.568288727E0,9.405092010E0,9.537697237E0
4.633156083E0,2.148033142E-1,1.549278259E0,9.411828003E0,9.540907187E0
4.643135083E0,1.698966980E-1,1.519490204E0,9.428293762E0,9.551462644E0
4.653113083E0,1.627116394E-1,1.525178375E0,9.467512207E0,9.590955716E0
4.663092083E0,1.556762695E-1,1.539099426E0,9.498946838E0,9.624087135E0
4.673071083E0,1.434017944E-1,1.534309387E0,9.553882599E0,9.677362352E0
4.683050083E0,1.526824951E-1,1.546434174E0,9.589957581E0,9.715042820E0
4.693029083E0,1.332229614E-1,1.538500671E0,9.622290344E0,9.745419649E0
4.703008083E0,8.187973022E-2,1.515897675E0,9.658515015E0,9.777093757E0
4.712987083E0,4.595443726E-2,1.513652344E0,9.701475677E0,9.818955420E0
4.722966083E0,9.430389404E-3,1.527124329E0,9.768536224E0,9.887188560E0
4.732944083E0,-3.487747192E-2,1.544039154E0,9.765093384E0,9.886471673E0
4.742923083E0,-5.807922363E-2,1.559606781E0,9.768985291E0,9.892867133E0
4.752902083E0,-6.571334839E-2,1.607806549E0,9.710007935E0,9.842439445E0
4.762881083E0,-1.005908203E-1,1.617686005E0,9.658964081E0,9.794009069E0
4.772860083E0,-1.344204712E-1,1.635349274E0,9.602232056E0,9.741421691E0
4.782838958E0,-1.071771240E-1,1.653611298E0,9.624685364E0,9.766293340E0
4.792817958E0,-1.073268127E-1,1.674867096E0,9.640552368E0,9.785547956E0
4.802796958E0,-1.293310547E-1,1.653910675E0,9.660460968E0,9.801869881E0
4.812775958E0,-1.296304321E-1,1.663191376E0,9.661808167E0,9.804771626E0
4.822753958E0,-1.065783691E-1,1.681752777E0,9.653126221E0,9.799106959E0
4.832732958E0,-5.568420410E-2,1.726809082E0,9.592352600E0,9.746701942E0
4.842711958E0,-6.107299805E-2,1.726360016E0,9.537416840E0,9.692593502E0
4.852690958E0,-9.954299927E-2,1.681453400E0,9.502090302E0,9.650228725E0
4.862669958E0,-1.290316772E-1,1.654359741E0,9.503437500E0,9.647221343E0
4.872648958E0,-1.360670471E-1,1.638792114E0,9.553583221E0,9.694075830E0
4.882627958E0,-1.330732727E-1,1.624122620E0,9.654772797E0,9.791328844E0
4.892606958E0,-9.834548950E-2,1.601519623E0,9.716145172E0,9.847741566E0
4.902584958E0,-3.727249146E-2,1.586251373E0,9.737999725E0,9.866418870E0
4.912563958E0,1.167572021E-2,1.558109894E0,9.712103577E0,9.836300049E0
4.922542958E0,8.412506104E-2,1.547781372E0,9.658365326E0,9.781959158E0
4.932521958E0,1.276844788E-1,1.556912384E0,9.610464935E0,9.736596724E0
4.942500958E0,1.336720276E-1,1.590891724E0,9.558373260E0,9.690784492E0
4.952479958E0,1.260379028E-1,1.604064331E0,9.516909485E0,9.651967368E0
4.962458958E0,9.056167603E-2,1.612446899E0,9.509724426E0,9.645882286E0
4.972437958E0,1.028361511E-1,1.669777679E0,9.499844971E0,9.646024427E0
4.982416958E0,1.600172424E-1,1.726360016E0,9.530531158E0,9.686947331E0
4.992394958E0,1.838177490E-1,1.718127136E0,9.540560303E0,9.695774374E0
5.002373958E0,1.616638184E-1,1.669178925E0,9.566157074E0,9.712036585E0
5.012352958E0,1.811233521E-1,1.654210052E0,9.590706024E0,9.734005271E0
5.022331958E0,2.336640930E-1,1.666035461E0,9.631720734E0,9.777541478E0
5.032310958E0,2.149530029E-1,1.649120636E0,9.654323730E0,9.796518277E0
5.042289958E0,1.682501221E-1,1.635199585E0,9.630523224E0,9.769808767E0
5.052268958E0,1.035845947E-1,1.639839935E0,9.582922211E0,9.722767244E0
5.062247958E0,6.915618896E-2,1.644480286E0,9.517208862E0,9.658486554E0
5.072226958E0,2.903961182E-2,1.650018768E0,9.471553802E0,9.614246547E0
5.082204958E0,2.499801636E-2,1.647623749E0,9.457932129E0,9.600404631E0
5.092183958E0,5.224136353E-2,1.640588379E0,9.468560028E0,9.609780871E0
5.102162958E0,8.367599487E-2,1.628313904E0,9.559720459E0,9.697765882E0
5.112141958E0,7.634124756E-2,1.630259857E0,9.604327698E0,9.742006247E0
5.122120958E0,7.259902954E-2,1.667083282E0,9.706415405E0,9.848803852E0
5.132099958E0,1.293310547E-1,1.712588654E0,9.693691864E0,9.844660907E0
5.142078958E0,1.285826111E-1,1.703607330E0,9.625882874E0,9.776319989E0
5.152057958E0,8.607101440E-2,1.655706940E0,9.550140381E0,9.692984834E0
5.162036958E0,3.487747192E-2,1.618434448E0,9.491911469E0,9.628963071E0
5.172014958E0,2.709365845E-2,1.619931335E0,9.517508240E0,9.654422546E0
5.181993958E0,-5.089416504E-3,1.585353241E0,9.557175751E0,9.687774725E0
5.191972958E0,5.837860107E-3,1.524579620E0,9.598789215E0,9.719111662E0
5.201951958E0,4.355941772E-2,1.522334290E0,9.706116028E0,9.824870862E0
5.211930958E0,6.586303711E-2,1.530417480E0,9.763297119E0,9.882736779E0
5.221909958E0,6.810836792E-2,1.521585846E0,9.777667236E0,9.895586836E0
5.231888958E0,5.912704468E-2,1.528321838E0,9.754465485E0,9.873644744E0
5.241867958E0,9.011260986E-2,1.566043396E0,9.705068207E0,9.831020349E0
5.251845958E0,9.160949707E-2,1.622775421E0,9.633067932E0,9.769226692E0
5.261824958E0,7.244934082E-2,1.650168457E0,9.539362793E0,9.681309175E0
5.271803958E0,5.583389282E-2,1.669328613E0,9.494905243E0,9.640695048E0
5.281782958E0,5.583389282E-2,1.658401337E0,9.477541351E0,9.621704760E0
5.291761958E0,5.104385376E-2,1.648072815E0,9.543404388E0,9.684798232E0
5.301740958E0,3.367996216E-2,1.609602814E0,9.560169525E0,9.694781942E0
5.311719958E0,3.637435913E-2,1.593137054E0,9.626032562E0,9.757044207E0
5.321698958E0,1.511856079E-2,1.567240906E0,9.707163849E0,9.832878654E0
5.331677958E0,4.206253052E-2,1.556463318E0,9.761351166E0,9.884752091E0
5.341655958E0,7.963439941E-2,1.560504913E0,9.768236847E0,9.892419740E0
5.351634958E0,1.119671631E-1,1.596579895E0,9.703122253E0,9.834235378E0
5.361613958E0,1.154100037E-1,1.632355499E0,9.593400421E0,9.731969769E0
5.371592958E0,9.924362183E-2,1.688638458E0,9.503437500E0,9.652806507E0
5.381571958E0,6.721023560E-2,1.745370483E0,9.395212555E0,9.556194551E0
5.391550958E0,2.185455322E-2,1.774110718E0,9.315727844E0,9.483181519E0
5.401529958E0,-1.706451416E-2,1.751807098E0,9.338480530E0,9.501386105E0
5.411508958E0,-1.781295776E-2,1.710792389E0,9.396410065E0,9.550897864E0
5.421487958E0,4.849914551E-2,1.717229004E0,9.513766022E0,9.667624917E0
5.431465958E0,1.001417542E-1,1.711091766E0,9.607471161E0,9.759168280E0
5.441444958E0,8.547225952E-2,1.645977173E0,9.687704315E0,9.826910057E0
5.451423958E0,5.478607178E-2,1.584604797E0,9.674980774E0,9.804041353E0
5.461402958E0,4.475692749E-2,1.563947754E0,9.688752136E0,9.814267865E0
5.471381958E0,5.029541016E-2,1.568139038E0,9.706714783E0,9.832695538E0
5.481360958E0,5.089416504E-2,1.595681763E0,9.681267700E0,9.812019914E0
5.491339958E0,1.856140137E-2,1.590592346E0,9.654623108E0,9.784787984E0
5.501318958E0,-4.834945679E-2,1.556762695E0,9.627529449E0,9.752700706E0
5.511297958E0,-7.379653931E-2,1.621278534E0,9.612710266E0,9.748753186E0
5.521275958E0,-4.430786133E-2,1.671723633E0,9.608968048E0,9.753404023E0
5.531254958E0,-6.092330933E-2,1.669777679E0,9.575437775E0,9.720127454E0
5.541233958E0,-8.098159790E-2,1.651515656E0,9.525591431E0,9.668037758E0
5.551212958E0,-6.032455444E-2,1.679208069E0,9.508975983E0,9.656293442E0
5.561191958E0,-4.086502075E-2,1.698667603E0,9.502090302E0,9.652816256E0
5.571170958E0,-5.134323120E-2,1.691332855E0,9.472451935E0,9.622400356E0
5.581149958E0,-3.353027344E-2,1.679956512E0,9.465566254E0,9.613548911E0
5.591128958E0,-4.939727783E-3,1.641187134E0,9.481582947E0,9.622574229E0
5.601107958E0,9.131011963E-2,1.635349274E0,9.469009094E0,9.609622158E0
5.611085958E0,1.722917175E-1,1.610800323E0,9.483079834E0,9.620455564E0
5.621064958E0,2.008822632E-1,1.565594330E0,9.469158783E0,9.599812881E0
5.631043958E0,1.866618347E-1,1.532513123E0,9.450597382E0,9.575867062E0
5.641022958E0,1.437011719E-1,1.523232422E0,9.452693024E0,9.575713678E0
5.651001958E0,8.622070312E-2,1.542691956E0,9.485624542E0,9.610640220E0
5.660980958E0,4.819976807E-2,1.539847870E0,9.554631042E0,9.678038491E0
5.670959958E0,-1.751358032E-2,1.524429932E0,9.605375519E0,9.725607035E0
5.680938958E0,-6.361770630E-2,1.510808258E0,9.681716766E0,9.799093241E0
5.690916958E0,-8.801696777E-2,1.493594055E0,9.798923035E0,9.912490244E0
5.700895958E0,-1.454974365E-1,1.501976624E0,9.911938019E0,1.002614675E1
5.710874958E0,-1.698966980E-1,1.479373627E0,9.948162689E0,1.005899359E1
5.720853958E0,-1.743873596E-1,1.504072266E0,9.989776154E0,1.010387411E1
5.730832958E0,-1.625619507E-1,1.510059814E0,9.998907166E0,1.011359736E1
5.740811958E0,-1.258882141E-1,1.484313354E0,9.936636658E0,1.004767545E1
5.750790958E0,-8.966354370E-2,1.457968140E0,9.871222687E0,9.978714746E0
5.760769958E0,-6.152206421E-2,1.455573120E0,9.867480469E0,9.974449803E0
5.770748958E0,-5.014572144E-2,1.458417206E0,9.804012451E0,9.912020757E0
5.780726958E0,-5.837860107E-2,1.464554443E0,9.777068481E0,9.886323678E0
5.790705958E0,-6.421646118E-2,1.475481720E0,9.757608948E0,9.868743711E0
5.800684958E0,-4.715194702E-2,1.517993317E0,9.702673187E0,9.820814324E0
5.810663958E0,-3.622467041E-2,1.564097443E0,9.704918518E0,9.830216502E0
5.820642958E0,-6.002517700E-2,1.578018494E0,9.698182526E0,9.825909102E0
5.830621958E0,-4.146377563E-2,1.624721375E0,9.665400696E0,9.801092255E0
5.840600958E0,-2.933898926E-2,1.641336823E0,9.560169525E0,9.700087046E0
5.850579958E0,-5.673202515E-2,1.644330597E0,9.520801392E0,9.661920139E0
5.860558958E0,-4.894821167E-2,1.619482269E0,9.445208588E0,9.583166701E0
5.870536958E0,-6.885681152E-3,1.602417755E0,9.438622284E0,9.573681669E0
5.880515958E0,3.817062378E-2,1.586550751E0,9.453441467E0,9.585726673E0
5.890494958E0,2.140548706E-2,1.542841644E0,9.463620300E0,9.588583197E0
5.900473958E0,-9.280700684E-3,1.503473511E0,9.502689056E0,9.620894866E0
5.910452958E0,7.933502197E-3,1.532962189E0,9.520502014E0,9.643131992E0
5.920431958E0,-4.490661621E-3,1.526824951E0,9.535321198E0,9.656788542E0
5.930410958E0,-3.787124634E-2,1.487905884E0,9.527088318E0,9.642650567E0
5.940389958E0,-1.407073975E-2,1.481169891E0,9.589209137E0,9.702937396E0
5.950368958E0,1.916015625E-2,1.463955688E0,9.621392212E0,9.732148862E0
5.960346958E0,3.742218018E-3,1.463057556E0,9.684261475E0,9.794154978E0
5.970325958E0,-6.586303711E-3,1.482068024E0,9.699080658E0,9.811663193E0
5.980304958E0,1.466949463E-2,1.507664795E0,9.714049530E0,9.830362486E0
5.990283958E0,4.625381470E-2,1.540895691E0,9.668693848E0,9.790819152E0
6.000262958E0,3.742218018E-2,1.593436432E0,9.600884857E0,9.732288021E0
6.010241958E0,5.688171387E-3,1.597478027E0,9.539662170E0,9.672493098E0
6.020220958E0,-5.029541016E-2,1.577719116E0,9.531129913E0,9.660960856E0
6.030199958E0,-1.124162292E-1,1.560055847E0,9.567803650E0,9.694806772E0
6.040178958E0,-1.216969299E-1,1.573827209E0,9.660311279E0,9.788429713E0
6.050156958E0,-1.028361511E-1,1.568288727E0,9.761500854E0,9.887214154E0
6.060135958E0,-1.095721436E-1,1.548829193E0,9.816286926E0,9.938328176E0
6.070114958E0,-1.077758789E-1,1.532064056E0,9.830357666E0,9.949611437E0
6.080093958E0,-8.771759033E-2,1.529669037E0,9.814790039E0,9.933664241E0
6.090072958E0,-9.056167603E-2,1.565145264E0,9.788444824E0,9.913199947E0
6.100051958E0,-9.220825195E-2,1.573527832E0,9.736652527E0,9.863411916E0
6.110030958E0,-7.619155884E-2,1.610950012E0,9.744436340E0,9.876993707E0
6.120009958E0,-7.828720093E-2,1.655108185E0,9.751322021E0,9.891096661E0
6.129988958E0,-8.696914673E-2,1.675914917E0,9.729766846E0,9.873429866E0
6.139966958E0,-1.139131165E-1,1.700014801E0,9.727970581E0,9.876053774E0
6.149945958E0,-1.538800049E-1,1.676363983E0,9.713450775E0,9.858245342E0
6.159924958E0,-1.962419128E-1,1.649270325E0,9.665101318E0,9.806772506E0
6.169903958E0,-1.764830017E-1,1.643582153E0,9.655521240E0,9.795999131E0
6.179882958E0,-1.401086426E-1,1.671124878E0,9.658664703E0,9.803167480E0
6.189861958E0,-1.074765015E-1,1.680405579E0,9.609566803E0,9.755977052E0
6.199840958E0,-9.610015869E-2,1.684147797E0,9.563762054E0,9.711391954E0
6.209819958E0,-7.948471069E-2,1.688638458E0,9.523495789E0,9.672372496E0
6.219798958E0,-8.876541138E-2,1.698068848E0,9.491013336E0,9.642128979E0
6.229776958E0,-1.363664246E-1,1.704655151E0,9.469158783E0,9.622339271E0
6.239755958E0,-1.419049072E-1,1.712888031E0,9.480086060E0,9.634633055E0
6.249734958E0,-9.520202637E-2,1.728904724E0,9.473649445E0,9.630587146E0
6.259713958E0,-6.406677246E-2,1.728156281E0,9.457782440E0,9.614586698E0
6.269692958E0,-2.365081787E-2,1.710343323E0,9.441316681E0,9.595014034E0
6.279671958E0,3.891906738E-3,1.674118652E0,9.436826019E0,9.584173085E0
6.289650958E0,-1.886077881E-2,1.661844177E0,9.455986176E0,9.600924765E0
6.299629958E0,-7.873626709E-2,1.661694489E0,9.504036255E0,9.648530101E0
6.309608958E0,-1.034349060E-1,1.722168732E0,9.563163300E0,9.717543734E0
6.319586958E0,-1.142124939E-1,1.765129395E0,9.598789215E0,9.760403714E0
6.329565958E0,-1.204994202E-1,1.778302002E0,9.591903534E0,9.756100221E0
6.339544958E0,-1.296304321E-1,1.768721924E0,9.630074158E0,9.792012540E0
6.349523958E0,-1.303788757E-1,1.768572235E0,9.604627075E0,9.766970239E0
6.359502958E0,-1.170565796E-1,1.793270874E0,9.594448242E0,9.761299081E0
6.369481958E0,-1.338217163E-1,1.800455933E0,9.620494080E0,9.788434816E0
6.379460958E0,-1.389111328E-1,1.766326904E0,9.590556335E0,9.752844603E0
6.389439958E0,-1.083746338E-1,1.755249939E0,9.621691589E0,9.781083603E0
6.399418958E0,-4.790039063E-2,1.754202118E0,9.620344391E0,9.779087162E0
6.409396958E0,-3.233276367E-2,1.735640717E0,9.620943146E0,9.776299971E0
6.419375958E0,-2.559677124E-2,1.728605347E0,9.632469177E0,9.786377986E0
6.429354958E0,-1.751358032E-2,1.747615814E0,9.639354858E0,9.796511106E0
6.439333958E0,-5.194198608E-2,1.723665619E0,9.640402679E0,9.793420493E0
6.449312958E0,-1.031355286E-1,1.700912933E0,9.641001434E0,9.790436681E0
6.459291958E0,-1.222956848E-1,1.750310211E0,9.653874664E0,9.812025179E0
6.469270958E0,-1.339714050E-1,1.741478577E0,9.628427582E0,9.785566599E0
6.479249958E0,-1.185534668E-1,1.743574219E0,9.593250732E0,9.751131503E0
6.489227958E0,-6.765930176E-2,1.778751068E0,9.548493805E0,9.712994754E0
6.499206958E0,-7.933502197E-3,1.809886322E0,9.529333649E0,9.699688203E0
6.509185958E0,4.191284180E-3,1.818568268E0,9.499395905E0,9.671904190E0
6.519164958E0,2.245330811E-2,1.858385468E0,9.425150299E0,9.606641393E0
6.529143958E0,1.122665405E-2,1.853595428E0,9.377100220E0,9.558553791E0
6.539122958E0,-3.981719971E-2,1.841021576E0,9.368717651E0,9.547974460E0
6.549101958E0,-7.888595581E-2,1.852547607E0,9.343569946E0,9.525778444E0
6.559080958E0,-1.272354126E-1,1.826501770E0,9.344917145E0,9.522592820E0
6.569059958E0,-1.357676697E-1,1.825154572E0,9.375902710E0,9.552862068E0
6.579038958E0,-1.258882141E-1,1.852098541E0,9.417366486E0,9.598588874E0
6.589016958E0,-1.522334290E-1,1.824406128E0,9.474996643E0,9.650243216E0
6.598995958E0,-1.365161133E-1,1.813927917E0,9.499695282E0,9.672289367E0
6.608974958E0,-7.125183105E-2,1.797611847E0,9.499395905E0,9.668247397E0
6.618953958E0,-1.197509766E-2,1.775158539E0,9.534572754E0,9.698423008E0
6.628932958E0,-1.616638184E-2,1.741029510E0,9.525441742E0,9.683258000E0
6.638911958E0,-3.577560425E-2,1.721869354E0,9.535919952E0,9.690195215E0
6.648890958E0,-5.239105225E-2,1.690883789E0,9.565258942E0,9.713702252E0
6.658869958E0,-7.259902954E-2,1.690584412E0,9.572743378E0,9.721150243E0
6.668847958E0,-6.092330933E-2,1.716630249E0,9.606423340E0,9.758785808E0
6.678826958E0,-4.355941772E-2,1.743274841E0,9.634864197E0,9.791399935E0
6.688805958E0,-3.382965088E-2,1.782942352E0,9.623936920E0,9.787757134E0
6.698784958E0,-4.311035156E-2,1.818418579E0,9.602531433E0,9.773285760E0
6.708763958E0,-5.089416504E-2,1.847158813E0,9.547146606E0,9.724330014E0
6.718742958E0,-7.484436035E-2,1.868264923E0,9.542506256E0,9.723962214E0
6.728721958E0,-1.287322998E-1,1.853445740E0,9.521849213E0,9.701414616E0
6.738700958E0,-1.335223389E-1,1.853745117E0,9.548344116E0,9.727542060E0
6.748679958E0,-8.801696777E-2,1.859882355E0,9.617200928E0,9.795788026E0
6.758658958E0,-3.502716064E-2,1.854044495E0,9.643995209E0,9.820659422E0
6.768636958E0,7.334747314E-3,1.831291809E0,9.658365326E0,9.830447816E0
6.778615958E0,1.541793823E-2,1.783541107E0,9.639654236E0,9.803274472E0
6.788594875E0,-2.739303589E-2,1.718127136E0,9.610315247E0,9.762728634E0
6.798573875E0,-3.427871704E-2,1.685045929E0,9.595046997E0,9.741944451E0
6.808552875E0,-3.861968994E-2,1.684447174E0,9.592951355E0,9.739793091E0
6.818531875E0,-6.301895142E-2,1.684596863E0,9.559870148E0,9.707366029E0
6.828510875E0,-4.894821167E-2,1.692081299E0,9.571845245E0,9.720378411E0
6.838489875E0,-3.592529297E-3,1.727258148E0,9.524842987E0,9.680189437E0
6.848467875E0,5.688171387E-3,1.754501495E0,9.502239990E0,9.662860481E0
6.858446875E0,-4.041595459E-3,1.752854919E0,9.453591156E0,9.614723212E0
6.868425875E0,-2.799179077E-2,1.754501495E0,9.439221039E0,9.600934999E0
6.878404875E0,-7.993377686E-2,1.725461884E0,9.449250183E0,9.605828290E0
6.888383875E0,-7.843688965E-2,1.701511688E0,9.501940613E0,9.653401980E0
6.898362875E0,-4.550537109E-2,1.694176941E0,9.605375519E0,9.753745183E0
6.908341875E0,-3.382965088E-2,1.682800598E0,9.691446533E0,9.836518602E0
6.918320875E0,-4.146377563E-2,1.697021027E0,9.681716766E0,9.829406857E0
6.928299875E0,-3.053649902E-2,1.720372467E0,9.675280151E0,9.827088069E0
6.938278875E0,-4.834945679E-2,1.716929626E0,9.632469177E0,9.784408386E0
6.948256875E0,-6.661148071E-2,1.708996124E0,9.590855713E0,9.742156750E0
6.958235875E0,-6.526428223E-2,1.722767487E0,9.527088318E0,9.681817962E0
6.968214875E0,-6.541397095E-2,1.714534607E0,9.552236023E0,9.705107982E0
6.978193875E0,-2.514770508E-2,1.707199860E0,9.582473145E0,9.733393824E0
6.988172875E0,-2.589614868E-2,1.737736359E0,9.595046997E0,9.751170450E0
6.998151875E0,-3.981719971E-2,1.744023285E0,9.611213379E0,9.768245761E0
7.008130875E0,-2.020797729E-2,1.752854919E0,9.614805908E0,9.773300435E0
7.018109875E0,1.930984497E-2,1.774260406E0,9.561965790E0,9.725202446E0
7.028087875E0,1.092727661E-2,1.763482819E0,9.523346100E0,9.685252294E0
7.038066875E0,-4.281097412E-2,1.725162506E0,9.511969757E0,9.667242994E0
7.048045875E0,-5.074447632E-2,1.742526398E0,9.519903259E0,9.678198764E0
7.058024875E0,-1.811233521E-2,1.773811340E0,9.555080109E0,9.718348142E0
7.068003875E0,-4.445755005E-2,1.749412079E0,9.606573029E0,9.764664072E0
7.077982875E0,-5.658233643E-2,1.729802856E0,9.631720734E0,9.785983025E0
7.087961875E0,-8.472381592E-2,1.730102234E0,9.677824860E0,9.831618680E0
7.097940875E0,-1.423539734E-1,1.689686279E0,9.682016144E0,9.829381516E0
7.107919875E0,-1.264869690E-1,1.693278809E0,9.675130463E0,9.823000639E0
7.117898875E0,-7.364685059E-2,1.702110443E0,9.708810425E0,9.857160021E0
7.127876875E0,-3.188369751E-2,1.705702972E0,9.694589996E0,9.843551920E0
7.137855875E0,-1.182540894E-2,1.722617798E0,9.643695831E0,9.796347340E0
7.147834875E0,-1.930984497E-2,1.727557526E0,9.632319489E0,9.786031198E0
7.157813875E0,-5.822891235E-2,1.723066864E0,9.604477386E0,9.757988312E0
7.167792875E0,-6.571334839E-2,1.732197876E0,9.584269409E0,9.739766313E0
7.177771875E0,-4.655319214E-2,1.733096008E0,9.578581238E0,9.734218382E0
7.187750875E0,-7.828720093E-2,1.699116669E0,9.575886841E0,9.725776839E0
7.197729875E0,-8.547225952E-2,1.684447174E0,9.553134155E0,9.700878310E0
7.207708875E0,-8.008346558E-2,1.686393127E0,9.594597931E0,9.742004137E0
7.217686875E0,-6.047424316E-2,1.703906708E0,9.632020111E0,9.781756827E0
7.227665875E0,-6.271957397E-2,1.682650909E0,9.648485870E0,9.794310972E0
7.237644875E0,-7.723937988E-2,1.653760986E0,9.654922485E0,9.795836846E0
7.247623875E0,-4.984634399E-2,1.656754761E0,9.647587738E0,9.788936110E0
7.257602875E0,-4.041595459E-3,1.703158264E0,9.641749878E0,9.791021658E0
7.267581875E0,-4.400848389E-2,1.720372467E0,9.554780731E0,9.708524759E0
7.277560875E0,-6.631210327E-2,1.714983673E0,9.483079834E0,9.637134918E0
7.287539875E0,-4.700225830E-2,1.720372467E0,9.431287537E0,9.587026402E0
7.297518875E0,-3.517684937E-2,1.755549316E0,9.439370728E0,9.601297337E0
7.307496875E0,-2.424957275E-2,1.747166748E0,9.485025787E0,9.644630313E0
7.317475875E0,-1.646575928E-2,1.740580444E0,9.538614349E0,9.696136092E0
7.327454875E0,-1.541793823E-2,1.743574219E0,9.618548126E0,9.775313643E0
7.337433875E0,3.367996216E-2,1.773362274E0,9.591155090E0,9.753778963E0
7.347412875E0,2.888992310E-2,1.766626282E0,9.593101044E0,9.754454915E0
7.357391875E0,1.676513672E-2,1.757644958E0,9.562115479E0,9.722327360E0
7.367370875E0,1.751358032E-2,1.749412079E0,9.515861664E0,9.675348704E0
7.377349875E0,-1.332229614E-2,1.718725891E0,9.498946838E0,9.653195699E0
7.387328875E0,-3.817062378E-2,1.700613556E0,9.510023804E0,9.660957313E0
7.397306875E0,-4.909790039E-2,1.713636475E0,9.559421082E0,9.711925246E0
7.407285875E0,-1.029858398E-1,1.723815308E0,9.626631317E0,9.780295283E0
7.417264875E0,-1.291813660E-1,1.714833984E0,9.694440308E0,9.845786728E0
7.427243875E0,-1.273851013E-1,1.682351532E0,9.732311554E0,9.877470416E0
7.437222875E0,-1.127156067E-1,1.671573944E0,9.717043304E0,9.860415551E0
7.447201875E0,-8.622070312E-2,1.670825500E0,9.719887390E0,9.862824278E0
7.457180875E0,-7.903564453E-2,1.669927368E0,9.721833344E0,9.864529771E0
7.467159875E0,-8.607101440E-2,1.671873322E0,9.716444550E0,9.859607665E0
7.477138875E0,-5.628295898E-2,1.690135345E0,9.704768829E0,9.851003162E0
7.487116875E0,-1.706451416E-2,1.709744568E0,9.680519257E0,9.830359646E0
7.497095875E0,-6.885681152E-3,1.722318420E0,9.671537933E0,9.823699616E0
7.507074875E0,2.993774414E-4,1.750459900E0,9.600136414E0,9.758418371E0
7.517053875E0,-1.077758789E-2,1.761536865E0,9.555379486E0,9.716398788E0
7.527032875E0,-3.532653809E-2,1.768721924E0,9.507479095E0,9.670666159E0
7.537011875E0,-5.523513794E-2,1.778152313E0,9.489217072E0,9.654538684E0
7.546990875E0,-4.041595459E-2,1.778302002E0,9.469907227E0,9.635514223E0
7.556969875E0,-2.110610962E-2,1.789678345E0,9.433532867E0,9.601819432E0
7.566948875E0,-2.874023438E-2,1.756297760E0,9.454040222E0,9.615835083E0
7.576927875E0,-4.266128540E-2,1.709594879E0,9.461824036E0,9.615126038E0
7.586905875E0,-2.335144043E-2,1.703906708E0,9.498647461E0,9.650292583E0
7.596884875E0,-4.326004028E-2,1.706152039E0,9.551487579E0,9.702769769E0
7.606863875E0,-5.882766724E-2,1.684896240E0,9.583820343E0,9.730978800E0
7.616842875E0,-3.772155762E-2,1.689087524E0,9.588011627E0,9.735728352E0
7.626821875E0,-2.814147949E-2,1.666933594E0,9.630223846E0,9.773467700E0
7.636800875E0,-2.963836670E-2,1.661544800E0,9.683063965E0,9.824629118E0
7.646779875E0,-7.185058594E-3,1.694626007E0,9.719588013E0,9.866215083E0
7.656758875E0,-5.538482666E-3,1.748364258E0,9.736353149E0,9.892086782E0
7.666737875E0,-7.529342651E-2,1.726958771E0,9.697284393E0,9.850146207E0
7.676715875E0,-8.786727905E-2,1.706301727E0,9.705966339E0,9.855200090E0
7.686694875E0,-3.218307495E-2,1.752854919E0,9.722581787E0,9.879379167E0
7.696673875E0,-1.077758789E-2,1.785337372E0,9.685758362E0,9.848931959E0
7.706652875E0,-3.068618774E-2,1.771865387E0,9.666598206E0,9.827694005E0
7.716631875E0,1.167572021E-2,1.794318695E0,9.624685364E0,9.790520122E0
7.726610875E0,3.323089600E-2,1.800306244E0,9.575437775E0,9.743265132E0
7.736589875E0,4.879852295E-2,1.780247955E0,9.531878357E0,9.696822629E0
7.746568875E0,6.975494385E-2,1.757345581E0,9.515113220E0,9.676285901E0
7.756547875E0,5.553451538E-2,1.724863129E0,9.555529175E0,9.710117131E0
7.766525875E0,1.945953369E-2,1.705702972E0,9.619745636E0,9.769816140E0
7.776504875E0,-6.735992432E-3,1.685045929E0,9.655221863E0,9.801159849E0
7.786483958E0,-4.176315308E-2,1.666484528E0,9.648785248E0,9.791729755E0
7.796462958E0,-8.337661743E-2,1.645378418E0,9.628128204E0,9.768064011E0
7.806441958E0,-1.161584473E-1,1.627266083E0,9.593250732E0,9.730978743E0
7.816420958E0,-1.293310547E-1,1.669328613E0,9.598639526E0,9.743575591E0
7.826399958E0,-9.789642334E-2,1.704056396E0,9.561965790E0,9.713113902E0
7.836378958E0,-4.385879517E-2,1.716181183E0,9.517208862E0,9.670804826E0
7.846357958E0,-6.735992432E-3,1.725162506E0,9.462422791E0,9.618402992E0
7.856335958E0,-1.661544800E-2,1.722168732E0,9.391170959E0,9.547786822E0
7.866314958E0,-2.514770508E-2,1.722019043E0,9.383985901E0,9.540711367E0
7.876293958E0,-3.263214111E-2,1.745370483E0,9.416468353E0,9.576912824E0
7.886272958E0,-6.825805664E-2,1.743424530E0,9.440268860E0,9.600149186E0
7.896251958E0,-8.053253174E-2,1.759890289E0,9.483977966E0,9.646218813E0
7.906230958E0,-7.514373779E-2,1.765877838E0,9.566606140E0,9.728510891E0
7.916209958E0,-5.807922363E-2,1.760638733E0,9.597292328E0,9.757624812E0
7.926188958E0,-4.894821167E-2,1.719773712E0,9.638157349E0,9.790510437E0
7.936167958E0,-1.901046753E-2,1.710942078E0,9.640252991E0,9.790922424E0
7.946145958E0,-6.137237549E-3,1.698218536E0,9.632020111E0,9.780582564E0
7.956124958E0,2.245330811E-2,1.701362000E0,9.604178009E0,9.753736311E0
7.966103958E0,2.290237427E-2,1.730102234E0,9.627978516E0,9.782215933E0
7.976082958E0,-4.939727783E-3,1.717528381E0,9.640103302E0,9.791910938E0
7.986061958E0,-2.424957275E-2,1.733096008E0,9.630822601E0,9.785548211E0
7.996040958E0,-2.694396973E-2,1.768572235E0,9.631121979E0,9.792195070E0
8.006019958E0,-4.894821167E-2,1.732347565E0,9.656119995E0,9.810406585E0
8.015998958E0,-3.891906738E-2,1.722168732E0,9.669292603E0,9.821537521E0
8.025977958E0,2.245330811E-3,1.737586670E0,9.654772797E0,9.809885332E0
8.035956958E0,4.505630493E-2,1.738784180E0,9.654623108E0,9.810053407E0
8.045934958E0,8.442443848E-2,1.754950562E0,9.607620850E0,9.766952306E0
8.055913958E0,9.789642334E-2,1.763632507E0,9.576335907E0,9.737874138E0
8.065892958E0,7.544311523E-2,1.736987915E0,9.572294312E0,9.728907290E0
8.075871958E0,4.236190796E-2,1.702709198E0,9.610165558E0,9.759933155E0
8.085850958E0,2.874023438E-2,1.698218536E0,9.682614899E0,9.830452862E0
8.095829958E0,4.191284180E-3,1.714384918E0,9.744286652E0,9.893950453E0
8.105808958E0,-2.275268555E-2,1.683399353E0,9.755662994E0,9.899864218E0
8.115787958E0,-4.086502075E-2,1.665885773E0,9.739496613E0,9.881024219E0
8.125766958E0,-3.652404785E-2,1.689087524E0,9.710307312E0,9.856186827E0
8.135745958E0,-4.625381470E-2,1.701661377E0,9.697134705E0,9.845415803E0
8.145723958E0,-2.095642090E-2,1.742526398E0,9.627230072E0,9.783680099E0
8.155702958E0,-3.158432007E-2,1.740580444E0,9.549691315E0,9.707070725E0
8.165681958E0,-4.595443726E-2,1.719324646E0,9.504185944E0,9.658557837E0
8.175660958E0,-1.811233521E-2,1.721420288E0,9.487869873E0,9.642784380E0
8.185639958E0,-3.592529297E-3,1.720671844E0,9.504185944E0,9.658689091E0
8.195618958E0,-1.841171265E-2,1.718426514E0,9.513466644E0,9.667438971E0
8.205597958E0,-7.394622803E-2,1.703906708E0,9.542206879E0,9.693424484E0
8.215576958E0,-5.942642212E-2,1.695524139E0,9.562714233E0,9.712045980E0
8.225555958E0,-9.430389404E-3,1.708846436E0,9.591005402E0,9.742054695E0
8.235533958E0,-6.586303711E-3,1.694326630E0,9.627828827E0,9.775779970E0
8.245512958E0,-1.691482544E-2,1.703457642E0,9.623787231E0,9.773399343E0
8.255491958E0,-9.879455566E-3,1.730551300E0,9.611363068E0,9.765920613E0
8.265470958E0,6.885681152E-3,1.765728149E0,9.579778748E0,9.741150043E0
8.275449958E0,2.230361938E-2,1.772015076E0,9.541608124E0,9.704783381E0
8.285428958E0,7.005432129E-2,1.801204376E0,9.493408356E0,9.663024735E0
8.295407958E0,7.020401001E-2,1.818418579E0,9.458381195E0,9.631850786E0
8.305386958E0,4.296066284E-2,1.805695038E0,9.424102478E0,9.595628573E0
8.315365958E0,1.990859985E-2,1.809586945E0,9.397308197E0,9.569974013E0
8.325343958E0,2.978805542E-2,1.794318695E0,9.395212555E0,9.565065910E0
8.335322958E0,3.562591553E-2,1.789079590E0,9.418414307E0,9.586897467E0
8.345301958E0,2.469863892E-2,1.782044220E0,9.438322906E0,9.605114831E0
8.355280958E0,1.107696533E-2,1.763333130E0,9.452992401E0,9.616055936E0
8.365259958E0,-7.035369873E-3,1.727258148E0,9.529183960E0,9.684462667E0
8.375238958E0,-3.188369751E-2,1.676363983E0,9.611961823E0,9.757101150E0
8.385217958E0,-6.062393188E-2,1.634451141E0,9.701924744E0,9.838823584E0
8.395196958E0,-7.783813477E-2,1.620380402E0,9.804461517E0,9.937764188E0
8.405175958E0,-1.586700439E-2,1.628313904E0,9.829609222E0,9.963577440E0
8.415153958E0,1.212478638E-2,1.621428223E0,9.838141479E0,9.970867779E0
8.425132958E0,3.203338623E-2,1.616638184E0,9.829908600E0,9.962010251E0
8.435111958E0,5.164260864E-2,1.632505188E0,9.785151672E0,9.920530903E0
8.445090958E0,7.409591675E-2,1.655108185E0,9.730515289E0,9.870552219E0
8.455069958E0,8.397537231E-2,1.680106201E0,9.678124237E0,9.823232536E0
8.465048958E0,4.131408691E-2,1.694626007E0,9.621242523E0,9.769430477E0
8.475027958E0,2.694396973E-3,1.719324646E0,9.580377502E0,9.733432981E0
8.485006958E0,-3.472778320E-2,1.738933868E0,9.598340149E0,9.754651743E0
8.494985958E0,-2.724334717E-2,1.745071106E0,9.613458710E0,9.770598944E0
8.504964958E0,-1.347198486E-2,1.763183441E0,9.633367310E0,9.793404059E0
8.514942958E0,2.559677124E-2,1.767524414E0,9.630074158E0,9.790971659E0
8.524921958E0,4.505630493E-2,1.764380951E0,9.621990967E0,9.782524233E0
8.534900958E0,4.819976807E-2,1.740131378E0,9.562863922E0,9.720017841E0
8.544879958E0,5.628295898E-2,1.722917175E0,9.510921936E0,9.665880583E0
8.554858958E0,6.945556641E-2,1.750759277E0,9.473200378E0,9.633872925E0
8.564837958E0,8.292755127E-2,1.764979706E0,9.447004852E0,9.610823639E0
8.574816958E0,6.990463257E-2,1.787133636E0,9.442813568E0,9.610695156E0
8.584795958E0,6.092330933E-2,1.765578461E0,9.427395630E0,9.591494530E0
8.594774958E0,3.487747192E-2,1.732497253E0,9.470805359E0,9.628027696E0
8.604753958E0,4.849914551E-2,1.725611572E0,9.508975983E0,9.664404364E0
8.614731958E0,5.164260864E-2,1.762884064E0,9.533674622E0,9.695430830E0
8.624710958E0,2.739303589E-2,1.736538849E0,9.551188202E0,9.707806839E0
8.634689958E0,2.395019531E-2,1.738335114E0,9.525591431E0,9.682937296E0
8.644668958E0,4.535568237E-2,1.754202118E0,9.468859406E0,9.630087261E0
8.654647958E0,4.939727783E-2,1.730551300E0,9.446256409E0,9.603593496E0
8.664626958E0,4.670288086E-2,1.708397369E0,9.399852905E0,9.553954018E0
8.674605958E0,6.436614990E-2,1.718276825E0,9.442065125E0,9.597354430E0
8.684584958E0,6.077362061E-2,1.724713440E0,9.516909485E0,9.672119521E0
8.694563958E0,5.658233643E-2,1.718875580E0,9.521549835E0,9.675621225E0
8.704541958E0,7.125183105E-2,1.683848419E0,9.516460419E0,9.664545578E0
8.714520958E0,5.882766724E-2,1.672322388E0,9.530680847E0,9.676466311E0
8.724499958E0,7.379653931E-2,1.717528381E0,9.527088318E0,9.680948377E0
8.734478958E0,5.149291992E-2,1.764231262E0,9.538015594E0,9.699943554E0
8.744457958E0,2.903961182E-2,1.753004608E0,9.567653961E0,9.726966165E0
8.754436958E0,4.790039063E-2,1.724713440E0,9.622290344E0,9.775755846E0
8.764415958E0,9.819580078E-2,1.745370483E0,9.627379761E0,9.784804627E0
8.774394958E0,1.228944397E-1,1.737886047E0,9.657766571E0,9.813654065E0
8.784373875E0,1.386117554E-1,1.742825775E0,9.645791473E0,9.802956087E0
8.794351875E0,9.131011963E-2,1.723515930E0,9.684710541E0,9.837299577E0
8.804330875E0,5.104385376E-2,1.680255890E0,9.699380035E0,9.843974726E0
8.814309875E0,3.577560425E-2,1.645827484E0,9.737700348E0,9.875871408E0
8.824288875E0,4.550537109E-2,1.641785889E0,9.754764862E0,9.892065970E0
8.834267875E0,3.637435913E-2,1.647773438E0,9.727970581E0,9.866604888E0
8.844246875E0,2.724334717E-2,1.643582153E0,9.639654236E0,9.778805565E0
8.854225875E0,3.787124634E-2,1.658551025E0,9.567653961E0,9.710418531E0
8.864204875E0,9.999206543E-2,1.682501221E0,9.526190186E0,9.674146382E0
8.874183875E0,1.573228455E-1,1.708696747E0,9.476343842E0,9.630445870E0
8.884162875E0,1.438508606E-1,1.713786163E0,9.442663879E0,9.598002773E0
8.894140875E0,1.323248291E-1,1.710193634E0,9.412576447E0,9.567594655E0
8.904119875E0,9.774673462E-2,1.688937836E0,9.419462128E0,9.570179320E0
8.914098875E0,6.242019653E-2,1.671573944E0,9.466763763E0,9.613411043E0
8.924077875E0,3.577560425E-2,1.681453400E0,9.519005127E0,9.666438022E0
8.934056875E0,4.385879517E-2,1.666783905E0,9.568103027E0,9.712295698E0
8.944035875E0,3.981719971E-2,1.644180908E0,9.612859955E0,9.752537761E0
8.954014875E0,6.526428223E-2,1.660796356E0,9.633516998E0,9.775845422E0
8.963993875E0,7.334747314E-2,1.676363983E0,9.617799683E0,9.763075683E0
8.973972875E0,5.822891235E-2,1.652413788E0,9.607770538E0,9.749005931E0
8.983950875E0,3.308120728E-2,1.659449158E0,9.595346375E0,9.737840516E0
8.993929875E0,5.673202515E-2,1.694027252E0,9.569899292E0,9.718843517E0
9.003908875E0,7.993377686E-2,1.721270599E0,9.584868164E0,9.738524509E0
9.013887875E0,7.963439941E-2,1.705403595E0,9.593250732E0,9.743982896E0
9.023866875E0,9.071136475E-2,1.699565735E0,9.607171783E0,9.756766981E0
9.033845875E0,5.403762817E-2,1.686842194E0,9.623188477E0,9.770062083E0
9.043824875E0,2.918930054E-2,1.677411804E0,9.661957855E0,9.806528028E0
9.053803875E0,-4.490661621E-3,1.652413788E0,9.714648285E0,9.854180980E0
9.063782875E0,-3.263214111E-2,1.637444916E0,9.783205719E0,9.919344981E0
9.073761875E0,-4.864883423E-2,1.633702698E0,9.798324280E0,9.933705749E0
9.083739875E0,-2.784210205E-2,1.633702698E0,9.810898132E0,9.946028446E0
9.093718875E0,-2.395019531E-3,1.629062347E0,9.812544708E0,9.946852945E0
9.103697875E0,1.781295776E-2,1.626068573E0,9.788594513E0,9.922751576E0
9.113676875E0,3.128494263E-2,1.629062347E0,9.716444550E0,9.852112340E0
9.123655875E0,3.981719971E-2,1.650018768E0,9.688003693E0,9.827591917E0
9.133634875E0,3.757186890E-2,1.675765228E0,9.613608398E0,9.758640642E0
9.143613875E0,4.385879517E-2,1.683848419E0,9.532327423E0,9.680006983E0
9.153592875E0,7.379653931E-2,1.673968964E0,9.534572754E0,9.680686733E0
9.163571875E0,7.679031372E-2,1.672771454E0,9.516161041E0,9.662369381E0
9.173550875E0,8.442443848E-2,1.681303711E0,9.496402130E0,9.644457635E0
9.183528875E0,5.598358154E-2,1.680854645E0,9.513766022E0,9.661270642E0
9.193507875E0,1.541793823E-2,1.668729858E0,9.546398163E0,9.691161692E0
9.203486875E0,2.380050659E-2,1.677411804E0,9.542655945E0,9.688991656E0
9.213465875E0,1.990859985E-2,1.681303711E0,9.560618591E0,9.707348061E0
9.223444875E0,3.053649902E-2,1.680854645E0,9.547745361E0,9.694619451E0
9.233423875E0,2.754272461E-2,1.655557251E0,9.568103027E0,9.710315338E0
9.243402875E0,4.894821167E-2,1.655108185E0,9.558073883E0,9.700440989E0
9.253381875E0,5.837860107E-2,1.669328613E0,9.558223572E0,9.703077034E0
9.263360875E0,6.062393188E-2,1.669478302E0,9.560019836E0,9.704886003E0
9.273338875E0,7.155120850E-2,1.690883789E0,9.592951355E0,9.741094562E0
9.283317875E0,7.514373779E-2,1.698068848E0,9.614955597E0,9.764038894E0
9.293296875E0,4.445755005E-2,1.681453400E0,9.634714508E0,9.780438930E0
9.303275875E0,3.293151855E-2,1.687890015E0,9.641749878E0,9.788431840E0
9.313254875E0,2.784210205E-2,1.697021027E0,9.636810150E0,9.785129811E0
9.323233875E0,3.667373657E-2,1.710792389E0,9.659413147E0,9.809812328E0
9.333212875E0,3.233276367E-2,1.693877563E0,9.645043030E0,9.792707575E0
9.343191875E0,1.317260742E-2,1.668280792E0,9.636211395E0,9.779565654E0
9.353170875E0,4.640350342E-3,1.663939819E0,9.640702057E0,9.783243501E0
9.363149875E0,1.945953369E-2,1.640139313E0,9.622889099E0,9.761681733E0
9.373127875E0,4.011657715E-2,1.656156006E0,9.631121979E0,9.772562234E0
9.383106875E0,5.912704468E-2,1.679208069E0,9.651180267E0,9.796352193E0
9.393085875E0,5.538482666E-2,1.679208069E0,9.632020111E0,9.777454609E0
9.403064875E0,2.993774414E-2,1.686393127E0,9.576335907E0,9.723735262E0
9.413043875E0,3.038681030E-2,1.720671844E0,9.521699524E0,9.675970069E0
9.423022875E0,-7.334747314E-3,1.699565735E0,9.483828278E0,9.634914441E0
9.433001875E0,-2.619552612E-2,1.705702972E0,9.469009094E0,9.621446984E0
9.442980875E0,-2.589614868E-2,1.718725891E0,9.551786957E0,9.705221449E0
9.452959875E0,-1.047821045E-3,1.735640717E0,9.599687347E0,9.755329157E0
9.462938875E0,4.266128540E-2,1.755100250E0,9.601633301E0,9.760817533E0
9.472916875E0,8.936416626E-2,1.756597137E0,9.615853729E0,9.775390652E0
9.482895875E0,1.278341675E-1,1.758094025E0,9.580826569E0,9.741636100E0
9.492874875E0,1.323248291E-1,1.739682312E0,9.536069641E0,9.694360660E0
9.502853875E0,8.173004150E-2,1.694925385E0,9.518556061E0,9.668627687E0
9.512832875E0,4.071533203E-2,1.684746552E0,9.542356567E0,9.690025673E0
9.522811875E0,1.721420288E-2,1.677860870E0,9.615105286E0,9.760418182E0
9.532790875E0,-6.735992432E-3,1.654359741E0,9.690398712E0,9.830604189E0
9.542769875E0,-1.676513672E-2,1.668580170E0,9.733808441E0,9.875802125E0
9.552748875E0,-7.035369873E-3,1.683399353E0,9.737700348E0,9.882139998E0
9.562726875E0,1.347198486E-2,1.711989899E0,9.685908051E0,9.836051325E0
9.572705875E0,6.900650024E-2,1.730251923E0,9.613159332E0,9.767874178E0
9.582684875E0,9.101074219E-2,1.752705231E0,9.531578979E0,9.691813887E0
9.592663875E0,1.185534668E-1,1.762734375E0,9.473799133E0,9.637123918E0
9.602642875E0,1.133143616E-1,1.766326904E0,9.446406097E0,9.610792841E0
9.612621875E0,8.217910767E-2,1.777553558E0,9.483079834E0,9.648588145E0
9.622600875E0,3.263214111E-2,1.781295776E0,9.545799408E0,9.710631588E0
9.632579875E0,2.305206299E-2,1.774709473E0,9.617350616E0,9.779752450E0
9.642558875E0,3.936813354E-2,1.743574219E0,9.677375793E0,9.833270217E0
9.652537875E0,8.532257080E-2,1.718426514E0,9.728868713E0,9.879835832E0
9.662515875E0,9.340576172E-2,1.713786163E0,9.743238831E0,9.893254801E0
9.672494875E0,8.996292114E-2,1.642684021E0,9.740095367E0,9.878054560E0
9.682473875E0,8.996292114E-2,1.617236938E0,9.698930969E0,9.833250256E0
9.692452875E0,9.714797974E-2,1.641636200E0,9.687704315E0,9.826292385E0
9.702431875E0,9.714797974E-2,1.647324371E0,9.660011902E0,9.799946187E0
9.712410875E0,7.035369873E-2,1.666185150E0,9.622290344E0,9.765735716E0
9.722389875E0,8.008346558E-2,1.690584412E0,9.589508514E0,9.737718550E0
9.732368875E0,8.128097534E-2,1.732646942E0,9.567803650E0,9.723761551E0
9.742347875E0,6.017486572E-2,1.734742584E0,9.539213104E0,9.695851664E0
9.752326875E0,4.445755005E-2,1.742975464E0,9.513466644E0,9.671917469E0
9.762304875E0,5.837860107E-3,1.756148071E0,9.502988434E0,9.663895659E0
9.772283875E0,-2.888992310E-2,1.745370483E0,9.519154816E0,9.677885159E0
9.782262875E0,-1.826202393E-2,1.754501495E0,9.547146606E0,9.707039576E0
9.792241583E0,1.197509766E-3,1.738933868E0,9.572743378E0,9.729404309E0
9.802220583E0,2.978805542E-2,1.707199860E0,9.555379486E0,9.706734560E0
9.812199583E0,3.562591553E-2,1.697021027E0,9.567953339E0,9.717349467E0
9.822178583E0,3.637435913E-2,1.725312195E0,9.559570770E0,9.714083517E0
9.832157583E0,2.245330811E-2,1.753902740E0,9.547146606E0,9.706940162E0
9.842136583E0,6.885681152E-3,1.748963013E0,9.516161041E0,9.675548563E0
9.852115583E0,3.757186890E-2,1.769170990E0,9.496402130E0,9.659867031E0
9.862093583E0,3.577560425E-2,1.753753052E0,9.451794891E0,9.613186586E0
9.872072583E0,1.287322998E-2,1.752555542E0,9.435628510E0,9.597015266E0
9.882051583E0,4.475692749E-2,1.781295776E0,9.435329132E0,9.602106730E0
9.892030583E0,3.622467041E-2,1.740281067E0,9.460177460E0,9.618983729E0
9.902009583E0,2.050735474E-2,1.701811066E0,9.517957306E0,9.668924073E0
9.911988583E0,5.224136353E-2,1.728455658E0,9.601782990E0,9.756255670E0
9.921967583E0,1.019380188E-1,1.762584686E0,9.680070190E0,9.839758891E0
9.931946583E0,7.708969116E-2,1.742077332E0,9.704469452E0,9.859893691E0
9.941925583E0,5.748046875E-2,1.721270599E0,9.671238556E0,9.823386976E0
9.951903583E0,5.014572144E-2,1.711989899E0,9.680070190E0,9.830421298E0
9.961882583E0,6.167175293E-2,1.702858887E0,9.660610657E0,9.809736493E0
9.971861583E0,6.122268677E-2,1.696571960E0,9.650431824E0,9.798619240E0
9.981840583E0,5.523513794E-2,1.712438965E0,9.694889374E0,9.845119507E0
9.991819583E0,8.277786255E-2,1.750160522E0,9.699978790E0,9.856951991E0
1.000179858E1,1.046324158E-1,1.769470367E0,9.654623108E0,9.815993107E0
1.001177758E1,1.251397705E-1,1.739682312E0,9.612859955E0,9.769812231E0
1.002175658E1,1.218466187E-1,1.753753052E0,9.533375244E0,9.694108516E0
1.003173558E1,1.121168518E-1,1.777254181E0,9.501491547E0,9.666930445E0
1.004171458E1,6.930587769E-2,1.773062897E0,9.501641235E0,9.665906140E0
1.005169258E1,5.224136353E-2,1.756297760E0,9.524244232E0,9.684964593E0
1.006167158E1,4.460723877E-2,1.739682312E0,9.548044739E0,9.705340936E0
1.007165058E1,4.849914551E-2,1.741029510E0,9.591903534E0,9.748751168E0
1.008162958E1,8.337661743E-2,1.717229004E0,9.587263184E0,9.740197250E0
1.009160858E1,1.053808594E-1,1.712139587E0,9.573491821E0,9.725958706E0
1.010158758E1,9.939331055E-2,1.715881805E0,9.559720459E0,9.713000806E0
1.011156658E1,8.801696777E-2,1.754202118E0,9.545050964E0,9.705306279E0
1.012154558E1,6.122268677E-2,1.743125153E0,9.494605865E0,9.653485073E0
1.013152458E1,4.086502075E-2,1.768123169E0,9.453291779E0,9.617310172E0
1.014150358E1,5.149291992E-2,1.768721924E0,9.442214813E0,9.606583646E0
1.015148158E1,4.086502075E-2,1.751208344E0,9.450447693E0,9.611418324E0
1.016146058E1,3.308120728E-2,1.751058655E0,9.495803375E0,9.655960984E0
1.017143958E1,2.245330811E-2,1.769769745E0,9.555529175E0,9.718061891E0
1.018141858E1,1.496887207E-2,1.766326904E0,9.579329681E0,9.740826040E0
1.019139758E1,5.568420410E-2,1.781146088E0,9.602980499E0,9.766924623E0
1.020137658E1,1.115180969E-1,1.779948578E0,9.610315247E0,9.774395754E0
1.021135558E1,1.163081360E-1,1.757345581E0,9.589807892E0,9.750190074E0
1.022133458E1,8.337661743E-2,1.722617798E0,9.573940887E0,9.728037205E0
1.023131358E1,5.373825073E-2,1.706301727E0,9.621242523E0,9.771522966E0
1.024129258E1,4.311035156E-2,1.700463867E0,9.659562836E0,9.808189947E0
1.025127058E1,2.724334717E-2,1.689686279E0,9.681118011E0,9.827503644E0
1.026124958E1,2.649490356E-2,1.699416046E0,9.696236572E0,9.844070324E0
1.027122858E1,2.918930054E-2,1.686542816E0,9.654772797E0,9.801016092E0
1.028120758E1,6.900650024E-2,1.705852661E0,9.634864197E0,9.784952902E0
1.029118658E1,1.221459961E-1,1.738484802E0,9.612560577E0,9.769266600E0
1.030116558E1,1.270857239E-1,1.774260406E0,9.601782990E0,9.765161921E0
1.031114458E1,6.661148071E-2,1.779649200E0,9.588760071E0,9.752738490E0
1.032112358E1,2.529739380E-2,1.779948578E0,9.610464935E0,9.773939491E0
1.033110258E1,5.688171387E-3,1.761387177E0,9.618398438E0,9.778348820E0
1.034108158E1,1.392105103E-2,1.782792664E0,9.600735168E0,9.764868624E0
1.035105958E1,4.370910645E-2,1.782792664E0,9.590855713E0,9.755243384E0
1.036103858E1,8.442443848E-2,1.751956787E0,9.601034546E0,9.759935677E0
1.037101758E1,1.339714050E-1,1.770667877E0,9.624984741E0,9.787417654E0
1.038099658E1,1.187031555E-1,1.785487061E0,9.628427582E0,9.793297309E0
1.039097558E1,5.718109131E-2,1.757195892E0,9.624385986E0,9.783650275E0
1.040095458E1,2.095642090E-3,1.719324646E0,9.608219604E0,9.760838366E0
1.041093358E1,3.203338623E-2,1.684297485E0,9.619446259E0,9.765839978E0
1.042091258E1,6.331832886E-2,1.697320404E0,9.652078400E0,9.800383829E0
1.043089158E1,1.302291870E-1,1.735940094E0,9.646839294E0,9.802650459E0
1.044087058E1,1.350192261E-1,1.779499512E0,9.623487854E0,9.787561861E0
1.045084858E1,9.101074219E-2,1.789229279E0,9.564061432E0,9.730410857E0
1.046082758E1,5.373825073E-2,1.781894531E0,9.489666138E0,9.655661517E0
1.047080658E1,3.382965088E-2,1.791474609E0,9.492959290E0,9.660579786E0
1.048078558E1,1.766326904E-2,1.761237488E0,9.533824310E0,9.695157320E0
1.049076458E1,2.395019531E-2,1.747615814E0,9.596394196E0,9.754256312E0
1.050074358E1,2.724334717E-2,1.756148071E0,9.647737427E0,9.806305915E0
1.051072258E1,4.760101318E-2,1.754651184E0,9.685009918E0,9.842788413E0
1.052070158E1,5.298980713E-2,1.728904724E0,9.672735443E0,9.826175778E0
1.053068058E1,5.987548828E-2,1.723665619E0,9.624236298E0,9.777552483E0
1.054065958E1,7.798782349E-2,1.733096008E0,9.594148865E0,9.749738269E0
1.055063758E1,1.007405090E-1,1.745669861E0,9.578132172E0,9.736433013E0
1.056061658E1,1.410067749E-1,1.758094025E0,9.574839020E0,9.735929322E0
1.057059558E1,1.577719116E-1,1.766626282E0,9.541757812E0,9.705204920E0
1.058057458E1,1.330732727E-1,1.769021301E0,9.536967773E0,9.700561797E0
1.059055358E1,1.104702759E-1,1.745819550E0,9.554181976E0,9.713005859E0
1.060053258E1,1.056802368E-1,1.747915192E0,9.544601898E0,9.703906493E0
1.061051158E1,1.178050232E-1,1.748214569E0,9.581275635E0,9.740173253E0
1.062049058E1,1.155596924E-1,1.784139862E0,9.580527191E0,9.745922755E0
1.063046958E1,9.789642334E-2,1.800455933E0,9.558822327E0,9.727399938E0
1.064044858E1,7.065307617E-2,1.788929901E0,9.515113220E0,9.682078374E0
1.065042658E1,9.131011963E-2,1.775607605E0,9.492510223E0,9.657580973E0
1.066040558E1,1.216969299E-1,1.759740601E0,9.472451935E0,9.635291526E0
1.067038458E1,1.634600830E-1,1.750609589E0,9.487570496E0,9.649111205E0
1.068036358E1,1.757345581E-1,1.760788422E0,9.534273376E0,9.697093756E0
1.069034258E1,1.386117554E-1,1.763333130E0,9.546697540E0,9.709170452E0
1.070032158E1,9.610015869E-2,1.762584686E0,9.567204895E0,9.728686937E0
1.071030058E1,7.783813477E-2,1.787133636E0,9.582173767E0,9.747715605E0
1.072027958E1,4.370910645E-2,1.775906982E0,9.585317230E0,9.748541558E0
1.073025858E1,8.083190918E-2,1.757794647E0,9.558972015E0,9.719584446E0
1.074023758E1,1.005908203E-1,1.794468384E0,9.549841003E0,9.717494455E0
1.075021558E1,1.181044006E-1,1.785786438E0,9.559570770E0,9.725655513E0
1.076019458E1,1.010398865E-1,1.766775970E0,9.511520691E0,9.674747141E0
1.077017358E1,7.978408813E-2,1.767823792E0,9.507778473E0,9.671060849E0
1.078015258E1,8.217910767E-2,1.776805115E0,9.479636993E0,9.645066477E0
1.079013133E1,9.759704590E-2,1.789229279E0,9.455986176E0,9.624268343E0
1.080011033E1,8.696914673E-2,1.781744843E0,9.437873840E0,9.604980007E0
1.081008933E1,7.080276489E-2,1.739233246E0,9.434580688E0,9.593813532E0
1.082006833E1,8.876541138E-2,1.747915192E0,9.461524658E0,9.622033864E0
1.083004733E1,1.064286804E-1,1.770967255E0,9.471853180E0,9.636578996E0
1.084002633E1,8.457412720E-2,1.770967255E0,9.506281586E0,9.670205137E0
1.085000433E1,6.376739502E-2,1.753154297E0,9.537267151E0,9.697271832E0
1.085998333E1,4.101470947E-2,1.737436981E0,9.585766296E0,9.742037003E0
1.086996233E1,4.101470947E-2,1.732197876E0,9.651030579E0,9.805334411E0
1.087994133E1,7.110214233E-2,1.710792389E0,9.687404938E0,9.837564767E0
1.088992033E1,8.502319336E-2,1.741179199E0,9.687105560E0,9.842710403E0
1.089989933E1,7.768844604E-2,1.754501495E0,9.654473419E0,9.812908233E0
1.090987833E1,7.244934082E-2,1.771116943E0,9.593400421E0,9.755789859E0
1.091985733E1,6.780899048E-2,1.763782196E0,9.539213104E0,9.701139745E0
1.092983633E1,6.945556641E-2,1.755100250E0,9.547595673E0,9.707820769E0
1.093981533E1,1.130149841E-1,1.733395386E0,9.569450226E0,9.725832076E0
1.094979333E1,1.550775146E-1,1.728006592E0,9.601184235E0,9.756679482E0
1.095977233E1,1.904040527E-1,1.738484802E0,9.648186493E0,9.805411043E0
1.096975133E1,1.727407837E-1,1.740430756E0,9.660760345E0,9.817801640E0
1.097973033E1,1.651066589E-1,1.756148071E0,9.671837311E0,9.831365786E0
1.098970933E1,1.314266968E-1,1.752555542E0,9.685009918E0,9.843177384E0
1.099968833E1,7.080276489E-2,1.715732117E0,9.686506805E0,9.837538504E0
1.100966733E1,3.128494263E-2,1.686093750E0,9.647587738E0,9.793867471E0
1.101964633E1,2.424957275E-2,1.676962738E0,9.614656219E0,9.759836386E0
1.102962533E1,4.580474854E-2,1.667682037E0,9.588610382E0,9.732662047E0
1.103960433E1,8.143066406E-2,1.649420013E0,9.577084351E0,9.718423843E0
1.104958233E1,1.092727661E-1,1.634600830E0,9.600735168E0,9.739505952E0
1.105956133E1,1.163081360E-1,1.652563477E0,9.589658203E0,9.731702733E0
1.106954033E1,1.173559570E-1,1.685345306E0,9.607022095E0,9.754436670E0
1.107951933E1,1.005908203E-1,1.681303711E0,9.591604156E0,9.738365929E0
1.108949833E1,5.897735596E-2,1.702260132E0,9.554481354E0,9.705116271E0
1.109947733E1,2.903961182E-2,1.715432739E0,9.501192169E0,9.654853982E0
1.110945633E1,3.607498169E-2,1.688039703E0,9.446855164E0,9.596554169E0
1.111943533E1,1.016386414E-1,1.664987640E0,9.390272827E0,9.537281480E0
1.112941433E1,1.437011719E-1,1.656605072E0,9.398206329E0,9.544174799E0
1.113939333E1,1.619631958E-1,1.651815033E0,9.413175201E0,9.558378124E0
1.114937133E1,1.118174744E-1,1.659299469E0,9.459878082E0,9.604950349E0
1.115935033E1,9.490264893E-2,1.650018768E0,9.534123688E0,9.676315566E0
1.116932933E1,5.388793945E-2,1.624571686E0,9.606573029E0,9.743119748E0
1.117930833E1,5.358856201E-2,1.608255615E0,9.685458984E0,9.818221509E0
1.118928733E1,8.756790161E-2,1.613794098E0,9.735604706E0,9.868839776E0
1.119926633E1,1.321751404E-1,1.621128845E0,9.767787781E0,9.902282925E0
1.120924533E1,1.544787598E-1,1.613943787E0,9.754016418E0,9.887846809E0
1.121922433E1,1.448986816E-1,1.618434448E0,9.764045563E0,9.898328720E0
1.122920333E1,1.278341675E-1,1.622775421E0,9.770482178E0,9.905153387E0
1.123918233E1,1.083746338E-1,1.609752502E0,9.799671478E0,9.931596511E0
1.124916033E1,9.684860229E-2,1.586850128E0,9.812993774E0,9.940941595E0
1.125913933E1,1.161584473E-1,1.571581879E0,9.826016693E0,9.951581102E0
1.126911833E1,9.909393311E-2,1.591041412E0,9.832752686E0,9.961137373E0
1.127909733E1,1.199006653E-1,1.619482269E0,9.833201752E0,9.966391307E0
1.128907633E1,1.216969299E-1,1.645827484E0,9.794881439E0,9.932938168E0
1.129905533E1,9.160949707E-2,1.639839935E0,9.723779297E0,9.861508562E0
1.130903433E1,9.220825195E-2,1.635349274E0,9.682465210E0,9.820030659E0
1.131901333E1,1.390608215E-1,1.635648651E0,9.618398438E0,9.757472671E0
1.132899233E1,1.574725342E-1,1.615590363E0,9.558672638E0,9.695522287E0
1.133897133E1,1.416055298E-1,1.633103943E0,9.510622559E0,9.650856028E0
1.134895033E1,1.278341675E-1,1.626817017E0,9.494905243E0,9.634111311E0
1.135892833E1,1.504371643E-1,1.643432465E0,9.484876099E0,9.627376393E0
1.136890733E1,1.586700439E-1,1.655706940E0,9.490115204E0,9.634771831E0
1.137888633E1,1.350192261E-1,1.625769196E0,9.538464661E0,9.676965627E0
1.138886533E1,8.756790161E-2,1.602567444E0,9.529034271E0,9.663249179E0
1.139884433E1,9.969268799E-2,1.607357483E0,9.547745361E0,9.682612158E0
1.140882333E1,1.202000427E-1,1.595681763E0,9.590406647E0,9.722990692E0
1.141880233E1,1.565744019E-1,1.614841919E0,9.614506531E0,9.750434134E0
1.142878133E1,1.875599670E-1,1.634750519E0,9.630972290E0,9.770527890E0
1.143876033E1,1.930984497E-1,1.649120636E0,9.601633301E0,9.744139158E0
1.144873833E1,1.887574768E-1,1.679956512E0,9.604028320E0,9.751678996E0
1.145871733E1,1.977388000E-1,1.711690521E0,9.551038513E0,9.705221366E0
1.146869633E1,1.661544800E-1,1.724114685E0,9.526938629E0,9.683116151E0
1.147867533E1,1.375639343E-1,1.711989899E0,9.494306488E0,9.648403440E0
1.148865433E1,1.228944397E-1,1.703757019E0,9.483379211E0,9.635993581E0
1.149863333E1,9.954299927E-2,1.705553284E0,9.505682831E0,9.657992902E0
1.150861233E1,1.016386414E-1,1.686243439E0,9.542955322E0,9.691323110E0
1.151859133E1,1.431024170E-1,1.691482544E0,9.586664429E0,9.735796134E0
1.152857033E1,1.456471252E-1,1.683698730E0,9.609716492E0,9.757187379E0
1.153854933E1,1.095721436E-1,1.680704956E0,9.570647736E0,9.717719552E0
1.154852833E1,1.136137390E-1,1.716330872E0,9.536668396E0,9.690549202E0
1.155850633E1,1.204994202E-1,1.698966980E0,9.479636993E0,9.631434288E0
1.156848533E1,1.064286804E-1,1.676663361E0,9.495204620E0,9.642688311E0
1.157846433E1,1.291813660E-1,1.686093750E0,9.523196411E0,9.672169862E0
1.158844333E1,1.341210938E-1,1.706601105E0,9.591903534E0,9.743463922E0
1.159842233E1,1.215472412E-1,1.721420288E0,9.621392212E0,9.774929649E0
1.160840133E1,1.603166199E-1,1.759740601E0,9.667646027E0,9.827805864E0
1.161838033E1,2.103126526E-1,1.804497528E0,9.668843536E0,9.838037308E0
1.162835933E1,2.191442871E-1,1.844464417E0,9.596693573E0,9.774794153E0
1.163833833E1,2.826123047E-1,1.933828583E0,9.434131622E0,9.634438342E0
1.164831733E1,2.734812927E-1,2.009271698E0,9.365424500E0,9.582439190E0
1.165829533E1,2.345622253E-1,2.053130493E0,9.355395355E0,9.580907395E0
1.166827433E1,2.411485291E-1,2.122885437E0,9.291627960E0,9.534104328E0
1.167825333E1,2.020797729E-1,2.131866760E0,9.404493256E0,9.645215680E0
1.168823233E1,2.137554932E-1,2.147883453E0,9.463620300E0,9.706657712E0
1.169821133E1,2.523751831E-1,2.192640381E0,9.476044464E0,9.729685697E0
1.170819033E1,2.261796570E-1,2.233655090E0,9.502239990E0,9.763858721E0
1.171816933E1,1.631607056E-1,2.231709137E0,9.480086060E0,9.740594375E0
1.172814833E1,4.445755005E-2,2.138752441E0,9.520502014E0,9.757878718E0
1.173812733E1,-7.050338745E-2,2.010918274E0,9.563762054E0,9.773142159E0
1.174810633E1,-1.709445190E-1,1.963766327E0,9.647288361E0,9.846612256E0
1.175808533E1,-2.128573608E-1,2.030078430E0,9.752669220E0,9.963989342E0
1.176806333E1,-1.998344421E-1,2.107168121E0,9.869725800E0,1.009413585E1
1.177804233E1,-1.210981750E-1,2.166295166E0,1.000624191E1,1.023876832E1
1.178802196E1,-2.454895020E-2,2.209106140E0,1.012449600E1,1.036272994E1
1.179800096E1,7.065307617E-2,2.226470032E0,1.011506561E1,1.035744722E1
1.180797996E1,1.143621826E-1,2.230811005E0,1.000848724E1,1.025472639E1
1.181795896E1,5.239105225E-2,2.232008514E0,9.752669220E0,1.000495696E1
1.182793796E1,8.637039185E-2,2.186353455E0,9.523196411E0,9.771329037E0
1.183791696E1,8.187973022E-2,2.159559174E0,9.483528900E0,9.726650015E0
1.184789596E1,8.397537231E-2,2.182461548E0,9.499695282E0,9.747533058E0
1.185787496E1,7.679031372E-2,2.223027191E0,9.635013885E0,9.888439676E0
1.186785296E1,1.357676697E-1,2.211800537E0,9.710756378E0,9.960385731E0
1.187783196E1,2.730322266E-1,2.128423920E0,9.743538208E0,9.977037225E0
1.188781096E1,4.031117249E-1,2.020648041E0,9.732311554E0,9.948035271E0
1.189778996E1,4.602928162E-1,1.950593719E0,9.756860504E0,9.960572887E0
1.190776896E1,4.682263184E-1,1.979333954E0,9.750274200E0,9.960162939E0
1.191774796E1,4.287084961E-1,2.033670959E0,9.736502838E0,9.955857375E0
1.192772696E1,3.463796997E-1,1.989812164E0,9.659712524E0,9.868605646E0
1.193770596E1,2.647993469E-1,1.926493835E0,9.515113220E0,9.711790607E0
1.194768496E1,1.633103943E-1,1.867815857E0,9.400002594E0,9.585168498E0
1.195766396E1,4.445755005E-2,1.835932159E0,9.326355743E0,9.505447639E0
1.196764296E1,-5.313949585E-2,1.828447723E0,9.239386597E0,9.418721228E0
1.197762096E1,-3.353027344E-2,1.905537415E0,9.128766632E0,9.325587238E0
1.198759996E1,4.385879517E-2,1.957329712E0,9.061257019E0,9.270352850E0
1.199757896E1,9.819580078E-2,1.946552124E0,8.905281372E0,9.116070639E0
1.200755796E1,9.310638428E-2,1.850451965E0,8.757837982E0,8.951679585E0
1.201753696E1,3.472778320E-2,1.739682312E0,8.719218292E0,8.891145494E0
1.202751596E1,-4.086502075E-2,1.645378418E0,8.836274872E0,8.988253095E0
1.203749496E1,-1.357676697E-1,1.625170441E0,9.181457062E0,9.325168395E0
1.204747396E1,-2.168989563E-1,1.743274841E0,9.566306763E0,9.726267393E0
1.205745296E1,-1.992356873E-1,2.013313293E0,9.965676270E0,1.016896400E1
1.206743196E1,-9.265731812E-2,2.368374939E0,1.022104523E1,1.049226147E1
1.207740996E1,3.263214111E-2,2.630629578E0,1.025921585E1,1.059116550E1
1.208738896E1,2.559677124E-2,2.532583466E0,1.005369324E1,1.036780507E1
1.209736796E1,-3.547622681E-2,2.202070770E0,9.767488403E0,1.001270213E1
1.210734696E1,5.508544922E-2,1.916315002E0,9.596843262E0,9.786454832E0
1.211732596E1,2.577639771E-1,1.789528656E0,9.470056915E0,9.641101237E0
1.212730496E1,4.772076416E-1,1.751956787E0,9.408534851E0,9.582150477E0
1.213728396E1,6.991960144E-1,1.822759552E0,9.390572205E0,9.591359329E0
1.214726296E1,8.045768738E-1,1.927541656E0,9.357191620E0,9.587481202E0
1.215724196E1,7.345225525E-1,1.985471191E0,9.297316132E0,9.535287436E0
1.216722096E1,6.604266357E-1,2.051334229E0,9.278155975E0,9.525141141E0
1.217719996E1,5.860313416E-1,2.173629913E0,9.273964691E0,9.543297167E0
1.218717796E1,5.519023132E-1,2.251468048E0,9.189839630E0,9.477703148E0
1.219715696E1,5.776487732E-1,2.235451355E0,9.115594025E0,9.403455497E0
1.220713596E1,7.003935242E-1,2.212399292E0,9.054970093E0,9.347606383E0
1.221711496E1,8.593629456E-1,2.240989838E0,9.019942932E0,9.333804724E0
1.222709396E1,9.327104187E-1,2.291584625E0,8.973988495E0,9.308801122E0
1.223707296E1,9.063652039E-1,2.318229218E0,8.877588959E0,9.219938737E0
1.224705196E1,7.858657837E-1,2.228565674E0,8.814270630E0,9.125538709E0
1.225703096E1,6.831793213E-1,2.158211975E0,8.820557556E0,9.106417985E0
1.226700996E1,6.580316162E-1,2.135159912E0,8.901988220E0,9.178088457E0
1.227698896E1,6.385720825E-1,2.119442596E0,9.077722778E0,9.343707084E0
1.228696696E1,6.358776855E-1,2.137105865E0,9.229956207E0,9.495454360E0
1.229694596E1,5.926176453E-1,2.119592285E0,9.376351776E0,9.631190983E0
1.230692496E1,6.288423157E-1,2.153122559E0,9.463620300E0,9.725815575E0
1.231690396E1,7.408094788E-1,2.246678009E0,9.536818085E0,9.825846525E0
1.232688296E1,8.107141113E-1,2.332599335E0,9.511071625E0,9.826431727E0
1.233686196E1,8.866062927E-1,2.392474823E0,9.449998627E0,9.788384981E0
1.234684096E1,9.587562561E-1,2.389181671E0,9.390572205E0,9.737055456E0
1.235681996E1,1.025816803E0,2.357747040E0,9.368567963E0,9.715005758E0
1.236679896E1,1.037941589E0,2.370171204E0,9.346713409E0,9.698251690E0
1.237677796E1,1.010847931E0,2.392774200E0,9.319769440E0,9.674982394E0
1.238675596E1,9.488768005E-1,2.475701752E0,9.335187378E0,9.704390230E0
1.239673496E1,8.569679260E-1,2.577789459E0,9.329349518E0,9.716797566E0
1.240671396E1,7.521858215E-1,2.620450745E0,9.312285004E0,9.703154003E0
1.241669296E1,6.935078430E-1,2.654879150E0,9.295519867E0,9.692059948E0
1.242667196E1,6.656657410E-1,2.659220123E0,9.254205780E0,9.651677945E0
1.243665096E1,6.325845337E-1,2.644850006E0,9.190588074E0,9.584482453E0
1.244662996E1,5.795947266E-1,2.620600433E0,9.175768890E0,9.560241179E0
1.245660896E1,5.670208740E-1,2.640359344E0,9.214837646E0,9.602408187E0
1.246658796E1,5.454656982E-1,2.635120239E0,9.279652863E0,9.661953672E0
1.247656696E1,4.915777588E-1,2.572250977E0,9.387279053E0,9.745723770E0
1.248654596E1,4.441264343E-1,2.509830780E0,9.536967773E0,9.871689478E0
1.249652396E1,4.065545654E-1,2.414179688E0,9.747879181E0,1.005060688E1
1.250650296E1,4.032614136E-1,2.319277039E0,1.000848724E1,1.028160895E1
1.251648196E1,3.918850708E-1,2.188149719E0,1.029244675E1,1.052976890E1
1.252646096E1,3.965254211E-1,2.050735474E0,1.052626053E1,1.073149147E1
1.253643996E1,3.839515686E-1,2.014510803E0,1.069406158E1,1.088892216E1
1.254641896E1,4.203259277E-1,2.013912048E0,1.073148376E1,1.092690530E1
1.255639796E1,4.950205994E-1,2.093396759E0,1.062879730E1,1.084429285E1
1.256637696E1,6.119274902E-1,2.214494934E0,1.039139099E1,1.064234231E1
1.257635596E1,6.749464417E-1,2.263443146E0,1.007704468E1,1.035014768E1
1.258633496E1,6.818321228E-1,2.216291199E0,9.756261749E0,1.002803495E1
1.259631396E1,6.795867920E-1,2.202220459E0,9.545949097E0,9.820221857E0
1.260629196E1,7.014413452E-1,2.183509369E0,9.478439484E0,9.751950993E0
1.261627096E1,7.616162109E-1,2.193987579E0,9.543404388E0,9.821924866E0
1.262624996E1,7.905061340E-1,2.211201782E0,9.711205444E0,9.991087251E0
1.263622896E1,7.110214233E-1,2.161954193E0,9.953252106E0,1.021013344E1
1.264620796E1,6.165678406E-1,2.001936951E0,1.019889130E1,1.041178616E1
1.265618696E1,6.156697083E-1,1.832040253E0,1.043854294E1,1.061595965E1
1.266616596E1,5.915698242E-1,1.716031494E0,1.063942520E1,1.079315003E1
1.267614496E1,5.736071777E-1,1.673968964E0,1.076157120E1,1.090608142E1
1.268612396E1,5.878276062E-1,1.654509430E0,1.073357941E1,1.087624336E1
1.269610296E1,6.096821594E-1,1.662143555E0,1.058658508E1,1.073360225E1
1.270608096E1,7.168592834E-1,1.705553284E0,1.041833496E1,1.058132802E1
1.271605996E1,7.604187012E-1,1.678160248E0,1.017119888E1,1.033671830E1
1.272603896E1,6.960525513E-1,1.650018768E0,9.978699188E0,1.013812056E1
1.273601796E1,5.731581116E-1,1.547631683E0,9.892927551E0,1.002964055E1
1.274599696E1,4.846920776E-1,1.427731018E0,9.927056580E0,1.004090606E1
1.275597596E1,4.058061218E-1,1.321152649E0,1.016581009E1,1.025932833E1
1.276595496E1,2.866539001E-1,1.110989685E0,1.046548691E1,1.052819475E1
1.277593396E1,9.295669556E-2,7.674540710E-1,1.069346283E1,1.072136997E1
1.278591296E1,-4.535568237E-2,5.078938293E-1,1.086515579E1,1.087711468E1
1.279589146E1,-1.004411316E-1,4.456233215E-1,1.093012070E1,1.093966211E1
1.280587046E1,-1.580712891E-1,5.664221191E-1,1.084045715E1,1.085639590E1
1.281584846E1,-1.998344421E-1,7.461982727E-1,1.056862244E1,1.059681678E1
1.282582746E1,-1.895059204E-1,8.884025574E-1,1.023062531E1,1.027087463E1
1.283580646E1,-9.565109253E-2,9.690847778E-1,9.864187317E0,9.912137300E0
1.284578546E1,4.445755005E-2,1.066981201E0,9.539213104E0,9.598802634E0
1.285576446E1,2.088157654E-1,1.186133423E0,9.296567688E0,9.374256626E0
1.286574346E1,2.558180237E-1,1.293460236E0,9.172924805E0,9.267201936E0
1.287572246E1,2.032772827E-1,1.373394012E0,9.088200989E0,9.193635297E0
1.288570146E1,1.115180969E-1,1.476828918E0,9.072633362E0,9.192721907E0
1.289568046E1,1.736389160E-2,1.583257599E0,9.063801727E0,9.201060150E0
1.290565946E1,-3.697311401E-2,1.705553284E0,8.985813904E0,9.146317867E0
1.291563746E1,-4.520599365E-2,1.786834259E0,8.872499542E0,9.050749603E0
1.292561646E1,1.377136230E-2,1.791025543E0,8.725355530E0,8.907288660E0
1.293559546E1,1.311273193E-1,1.762285309E0,8.537645874E0,8.718614624E0
1.294557446E1,2.630030823E-1,1.733245697E0,8.344697113E0,8.526856465E0
1.295555346E1,3.279679871E-1,1.695224762E0,8.160280609E0,8.340954958E0
1.296553246E1,3.490740967E-1,1.601669312E0,8.050558777E0,8.215758877E0
1.297551146E1,3.438349915E-1,1.539847870E0,8.062384186E0,8.215314524E0
1.298549046E1,2.860551453E-1,1.396296387E0,8.130492554E0,8.254476380E0
1.299546946E1,2.797682190E-1,1.300645294E0,8.374934235E0,8.479945275E0
1.300544846E1,2.977308655E-1,1.378932495E0,8.609945526E0,8.724749879E0
1.301542746E1,2.619552612E-1,1.442250824E0,8.912017365E0,9.031764031E0
1.302540546E1,2.405497742E-1,1.562151489E0,9.200766907E0,9.335539253E0
1.303538446E1,3.638932800E-1,1.806144104E0,9.482930145E0,9.660255638E0
1.304536346E1,3.525169373E-1,1.948947144E0,9.672136688E0,9.872836030E0
1.305534246E1,1.972897339E-1,1.890568542E0,9.640851746E0,9.826453838E0
1.306532146E1,5.493576050E-2,1.749561768E0,9.489965515E0,9.650048176E0
1.307530046E1,-9.415420532E-2,1.646875305E0,9.439670105E0,9.582715428E0
1.308527946E1,-1.722917175E-1,1.559606781E0,9.380992126E0,9.511312792E0
1.309525846E1,-2.023791504E-1,1.502725067E0,9.263037415E0,9.386319944E0
1.310523746E1,-1.531315613E-1,1.451232147E0,9.231153717E0,9.345786375E0
1.311521646E1,-4.445755005E-2,1.467697906E0,9.200168152E0,9.316609235E0
1.312519546E1,6.122268677E-2,1.502276001E0,9.280101929E0,9.401110211E0
1.313517346E1,1.721420288E-1,1.585053864E0,9.316027222E0,9.451475643E0
1.314515246E1,2.727328491E-1,1.655856628E0,9.353150024E0,9.502508077E0
1.315513146E1,3.710783386E-1,1.724713440E0,9.389823761E0,9.554115650E0
1.316511046E1,4.707710266E-1,1.823507996E0,9.322613525E0,9.510937373E0
1.317508946E1,5.019062805E-1,1.927541656E0,9.266629944E0,9.478278181E0
1.318506846E1,4.549040222E-1,1.995200958E0,9.204060059E0,9.428811489E0
1.319504746E1,3.879931641E-1,2.043700104E0,9.184600525E0,9.417225473E0
1.320502646E1,3.920347595E-1,2.096839600E0,9.230554962E0,9.473836207E0
1.321500546E1,4.116439819E-1,2.119741974E0,9.306746521E0,9.553967114E0
1.322498446E1,4.508624268E-1,2.121987305E0,9.416767731E0,9.663416660E0
1.323496346E1,5.147795105E-1,2.119592285E0,9.525741119E0,9.772277793E0
1.324494146E1,5.577401733E-1,2.122735748E0,9.622589722E0,9.869717023E0
1.325492046E1,5.292993164E-1,2.093845825E0,9.705367584E0,9.942761591E0
1.326489946E1,5.246589661E-1,2.014061737E0,9.800120544E0,1.001868626E1
1.327487846E1,4.962181091E-1,1.922452240E0,9.890382843E0,1.008770181E1
1.328485746E1,4.183799744E-1,1.859582977E0,1.000923569E1,1.018910642E1
1.329483646E1,3.161425781E-1,1.798360291E0,1.014036301E1,1.030344640E1
1.330481546E1,2.592608643E-1,1.731599121E0,1.024080414E1,1.038940427E1
1.331479446E1,2.694396973E-1,1.693578186E0,1.030127838E1,1.044304271E1
1.332477346E1,3.423381042E-1,1.730551300E0,1.037372772E1,1.052265318E1
1.333475246E1,4.694238281E-1,1.800455933E0,1.044572800E1,1.061014767E1
1.334473146E1,5.614823914E-1,1.845961304E0,1.041249710E1,1.058975597E1
1.335470946E1,7.186555481E-1,1.887874146E0,1.035606445E1,1.055123716E1
1.336468846E1,8.409512329E-1,1.928290100E0,1.032433044E1,1.053647478E1
1.337466746E1,8.762777710E-1,1.985471191E0,1.026460464E1,1.049152358E1
1.338464646E1,8.684939575E-1,2.040257263E0,1.025367737E1,1.049070212E1
1.339462546E1,8.277786255E-1,2.051334229E0,1.023721161E1,1.047347560E1
1.340460446E1,7.638615417E-1,1.997146912E0,1.026655060E1,1.048685565E1
1.341458346E1,6.593788147E-1,1.844464417E0,1.033346146E1,1.051747380E1
1.342456246E1,6.087840271E-1,1.646875305E0,1.035980667E1,1.050754065E1
1.343454146E1,5.724096680E-1,1.453776855E0,1.042671753E1,1.054312849E1
1.344452046E1,5.936654663E-1,1.359922028E0,1.051668045E1,1.062084716E1
1.345449946E1,6.698570251E-1,1.336570587E0,1.052865555E1,1.063427087E1
1.346447746E1,7.150630188E-1,1.230590973E0,1.046024780E1,1.055663078E1
1.347445646E1,6.867718506E-1,1.068777466E0,1.031011002E1,1.038808497E1
1.348443546E1,6.553372192E-1,9.701325989E-1,1.007075775E1,1.013857908E1
1.349441446E1,5.830375671E-1,8.286767578E-1,9.870174866E0,9.922045649E0
1.350439346E1,4.701722717E-1,6.147715759E-1,9.697583771E0,9.728419041E0
1.351437246E1,4.031117249E-1,4.472698975E-1,9.593550110E0,9.612427016E0
1.352435146E1,3.679348755E-1,4.200265503E-1,9.617200928E0,9.633397742E0
1.353433046E1,3.100053406E-1,5.050497437E-1,9.728269958E0,9.746302629E0
1.354430946E1,2.380050659E-1,6.486012268E-1,9.821376343E0,9.845646918E0
1.355428846E1,1.817221069E-1,7.571255493E-1,9.878258057E0,9.908897227E0
1.356426746E1,1.679507446E-1,8.321195984E-1,9.884844360E0,9.921228679E0
1.357424546E1,1.778302002E-1,9.044192505E-1,9.830207977E0,9.873327030E0
1.358422446E1,1.689985657E-1,9.671388245E-1,9.733958130E0,9.783345997E0
1.359420346E1,1.664538574E-1,1.041983185E0,9.623487854E0,9.681164926E0
1.360418246E1,2.215393066E-1,1.132844238E0,9.496701508E0,9.566595803E0
1.361416146E1,2.647993469E-1,1.208586731E0,9.386979675E0,9.468167088E0
1.362414046E1,3.441343689E-1,1.300495605E0,9.326206055E0,9.422729788E0
1.363411946E1,4.345463562E-1,1.388362885E0,9.236243134E0,9.350110655E0
1.364409846E1,5.138813782E-1,1.415157166E0,9.160800018E0,9.283695431E0
1.365407746E1,5.617817688E-1,1.362017670E0,9.102571106E0,9.221035280E0
1.366405646E1,5.626799011E-1,1.256786499E0,9.006021881E0,9.110683350E0
1.367403546E1,5.451663208E-1,1.143921204E0,8.948691101E0,9.037966279E0
1.368401346E1,5.366340637E-1,1.007405090E0,8.915310516E0,8.988081149E0
1.369399246E1,5.255570984E-1,8.942404175E-1,8.902736664E0,8.962956895E0
1.370397146E1,4.584965515E-1,8.367599487E-1,8.899443512E0,8.950445862E0
1.371395046E1,3.570075989E-1,8.193960571E-1,8.917256470E0,8.961937696E0
1.372392946E1,2.317181396E-1,8.436456299E-1,8.916657715E0,8.959476327E0
1.373390846E1,1.442999268E-1,8.677455139E-1,8.900341644E0,8.943706510E0
1.374388746E1,1.136137390E-1,9.032217407E-1,8.898096313E0,8.944542224E0
1.375386646E1,1.437011719E-1,9.999206543E-1,8.927135925E0,8.984110817E0
1.376384546E1,2.393522644E-1,1.142124939E0,8.942853241E0,9.018667472E0
1.377382446E1,3.188369751E-1,1.232985992E0,8.981173553E0,9.071019230E0
1.378380346E1,4.140390015E-1,1.295256500E0,8.982371063E0,9.084718356E0
1.379378133E1,5.063969421E-1,1.330283661E0,8.948242035E0,9.060746547E0
1.380376033E1,6.053411865E-1,1.456471252E0,9.036708069E0,9.173322145E0
1.381373933E1,6.771917725E-1,1.614692230E0,9.054820404E0,9.222558877E0
1.382371833E1,6.715036011E-1,1.705553284E0,9.043294373E0,9.227188207E0
1.383369733E1,6.571334839E-1,1.747915192E0,9.063652039E0,9.254016437E0
1.384367633E1,7.027885437E-1,1.815125427E0,9.119485931E0,9.324892262E0
1.385365533E1,7.491920471E-1,1.877246246E0,9.171427917E0,9.391508518E0
1.386363433E1,7.271878052E-1,1.969604187E0,9.241781616E0,9.477271242E0
1.387361333E1,6.601272583E-1,1.992955627E0,9.211843872E0,9.448053114E0
1.388359233E1,6.008505249E-1,1.988914032E0,9.174421692E0,9.406742994E0
1.389357133E1,5.445675659E-1,2.000140686E0,9.107510834E0,9.340442719E0
1.390354933E1,5.313949585E-1,2.035467224E0,9.033863983E0,9.275570381E0
1.391352833E1,4.936734009E-1,2.038760376E0,8.978628845E0,9.220413941E0
1.392350733E1,4.321513367E-1,2.088606720E0,8.947044525E0,9.197751820E0
1.393348633E1,3.790118408E-1,2.110161896E0,9.015901337E0,9.267303282E0
1.394346533E1,3.165916443E-1,2.086960144E0,9.057065735E0,9.299788849E0
1.395344433E1,2.758763123E-1,2.063758392E0,9.007668457E0,9.245176984E0
1.396342333E1,2.285746765E-1,2.048639832E0,9.041198730E0,9.273211204E0
1.397340233E1,2.222877502E-1,1.975591736E0,9.307794342E0,9.517741857E0
1.398338133E1,2.083666992E-1,1.957928467E0,9.553882599E0,9.754669306E0
1.399336033E1,2.052232361E-1,1.957629089E0,9.809251556E0,1.000479107E1
1.400333933E1,1.457968140E-1,1.896406403E0,1.006072861E1,1.023893911E1
1.401331733E1,9.041198730E-2,1.826801147E0,1.021266266E1,1.037515568E1
1.402329633E1,1.053808594E-1,1.815873871E0,1.034423904E1,1.050294170E1
1.403327533E1,2.239343262E-1,1.903292084E0,1.042028091E1,1.059504232E1
1.404325433E1,2.972817993E-1,2.009870453E0,1.034349060E1,1.054114574E1
1.405323333E1,4.067042542E-1,2.057471466E0,1.021580612E1,1.042886820E1
1.406321233E1,4.150868225E-1,1.996997223E0,9.929750977E0,1.013707302E1
1.407319133E1,4.625381470E-1,1.927990723E0,9.688602448E0,9.889393669E0
1.408317033E1,5.593867493E-1,1.834435272E0,9.514364777E0,9.705730442E0
1.409314933E1,5.894741821E-1,1.758393402E0,9.498647461E0,9.678002416E0
1.410312833E1,6.164181519E-1,1.755848694E0,9.596693573E0,9.775454133E0
1.411310733E1,5.899232483E-1,1.905387726E0,9.831106110E0,1.003140863E1
1.412308533E1,4.917274475E-1,1.997595978E0,1.009440857E1,1.030190613E1
1.413306433E1,3.926335144E-1,1.952389984E0,1.030337402E1,1.049406994E1
1.414304333E1,4.055067444E-1,1.872605896E0,1.056652679E1,1.073883500E1
1.415302233E1,4.538562012E-1,1.798659668E0,1.085886887E1,1.101617879E1
1.416300133E1,4.836442566E-1,1.814227295E0,1.111348938E1,1.127097949E1
1.417298033E1,4.468208313E-1,1.893262939E0,1.127320724E1,1.143981184E1
1.418295933E1,3.234773254E-1,1.944007416E0,1.125719055E1,1.142839190E1
1.419293833E1,1.377136230E-1,1.906136169E0,1.105645798E1,1.122040922E1
1.420291733E1,1.032852173E-2,1.849853210E0,1.077818665E1,1.093578397E1
1.421289633E1,-8.681945801E-2,1.720073090E0,1.046833099E1,1.060905947E1
1.422287533E1,-2.559677124E-1,1.458716583E0,1.017359390E1,1.028082616E1
1.423285333E1,-3.710783386E-1,1.128652954E0,1.001342697E1,1.008366383E1
1.424283233E1,-4.010160828E-1,8.970845032E-1,1.010832962E1,1.015597864E1
1.425281133E1,-3.739224243E-1,7.723937988E-1,1.028541138E1,1.032114806E1
1.426279033E1,-3.396437073E-1,7.450007629E-1,1.039797729E1,1.043016375E1
1.427276933E1,-3.222798157E-1,7.686515808E-1,1.043899200E1,1.047221293E1
1.428274833E1,-2.481838989E-1,9.065148926E-1,1.039198975E1,1.043440537E1
1.429272733E1,-1.616638184E-1,1.071022797E0,1.026595184E1,1.032293525E1
1.430270633E1,-1.062789917E-1,1.154249725E0,1.002480331E1,1.009159398E1
1.431268533E1,-4.954696655E-2,1.221310272E0,9.689350891E0,9.766144294E0
1.432266433E1,2.110610962E-2,1.286574554E0,9.369017029E0,9.456965668E0
1.433264333E1,1.116677856E-1,1.315763855E0,9.166039124E0,9.260668304E0
1.434262233E1,2.366578674E-1,1.302441559E0,9.117689667E0,9.213285289E0
1.435260033E1,3.562591553E-1,1.283131714E0,9.177565155E0,9.273675094E0
1.436257933E1,4.647834778E-1,1.290616150E0,9.256002045E0,9.357098246E0
1.437255833E1,5.158273315E-1,1.371897125E0,9.346563721E0,9.460783950E0
1.438253733E1,5.174739075E-1,1.480122070E0,9.390272827E0,9.520281737E0
1.439251633E1,4.713697815E-1,1.577719116E0,9.342372437E0,9.486374957E0
1.440249533E1,3.728746033E-1,1.639540558E0,9.193581848E0,9.346072753E0
1.441247433E1,2.734812927E-1,1.670226746E0,9.003028107E0,9.160729474E0
1.442245333E1,2.522254944E-1,1.696871338E0,8.855435028E0,9.020073147E0
1.443243233E1,2.797682190E-1,1.661544800E0,8.782237244E0,8.942409764E0
1.444241133E1,2.504292297E-1,1.562600555E0,8.735384674E0,8.877577412E0
1.445239033E1,2.029779053E-1,1.439257050E0,8.737779694E0,8.857847078E0
1.446236833E1,2.044747925E-1,1.412911835E0,8.808582458E0,8.923522551E0
1.447234733E1,1.990859985E-1,1.428629150E0,8.906179504E0,9.022230869E0
1.448232633E1,1.663041687E-1,1.398392029E0,8.975485382E0,9.085290044E0
1.449230533E1,1.384620667E-1,1.409319305E0,9.015601959E0,9.126140002E0
1.450228433E1,9.370513916E-2,1.365310822E0,9.069340210E0,9.172011019E0
1.451226333E1,7.589218140E-2,1.294508057E0,9.069489899E0,9.161722423E0
1.452224233E1,1.547781372E-1,1.269510040E0,9.059610443E0,9.149434594E0
1.453222133E1,2.532733154E-1,1.262923737E0,9.045240326E0,9.136492560E0
1.454220033E1,3.158432007E-1,1.256337433E0,9.092841339E0,9.184655916E0
1.455217933E1,3.317102051E-1,1.259480896E0,9.121132507E0,9.213651936E0
1.456215833E1,2.827619934E-1,1.261277161E0,9.075178070E0,9.166767774E0
1.457213633E1,2.023791504E-1,1.291514282E0,9.031019897E0,9.125145854E0
1.458211533E1,1.202000427E-1,1.337917786E0,8.956025848E0,9.056206217E0
1.459209433E1,1.200503540E-1,1.376387787E0,8.944200439E0,9.050280489E0
1.460207333E1,1.573228455E-1,1.379231873E0,8.936117249E0,9.043297104E0
1.461205233E1,2.399510193E-1,1.362616425E0,8.973539429E0,9.079576526E0
1.462203133E1,3.062631226E-1,1.381776581E0,9.029672699E0,9.139917542E0
1.463201033E1,3.531156921E-1,1.421444092E0,9.142837372E0,9.259409766E0
1.464198933E1,3.980223083E-1,1.552122345E0,9.244476013E0,9.382315401E0
1.465196833E1,3.836521912E-1,1.718875580E0,9.275611267E0,9.441328648E0
1.466194733E1,3.525169373E-1,1.836081848E0,9.351952515E0,9.537005850E0
1.467192633E1,3.803590393E-1,2.028132477E0,9.377249908E0,9.601604563E0
1.468190533E1,4.150868225E-1,2.078128510E0,9.356293488E0,9.593286350E0
1.469188333E1,4.784051514E-1,2.070793762E0,9.363478546E0,9.601655523E0
1.470186233E1,6.432124329E-1,2.227218475E0,9.472901001E0,9.752439579E0
1.471184133E1,6.786886597E-1,2.324815521E0,9.506730652E0,9.810367638E0
1.472182033E1,6.819818115E-1,2.343526611E0,9.553433533E0,9.860289470E0
1.473179933E1,7.005432129E-1,2.367776184E0,9.600136414E0,9.912605309E0
1.474177833E1,6.761439514E-1,2.319875793E0,9.723330231E0,1.001908904E1
1.475175733E1,5.432203674E-1,2.209106140E0,9.848919067E0,1.010823650E1
1.476173633E1,3.950285339E-1,2.078278198E0,1.002974304E1,1.025041625E1
1.477171533E1,2.538720703E-1,1.976190491E0,1.025741959E1,1.044913568E1
1.478169433E1,1.404080200E-1,1.966760101E0,1.041279648E1,1.059783894E1
1.479167338E1,9.505233765E-2,2.034868469E0,1.044632675E1,1.064309481E1
1.480165238E1,7.499404907E-2,2.056872711E0,1.032627640E1,1.052940329E1
1.481163037E1,9.250762939E-2,2.005379791E0,1.016266663E1,1.035904912E1
1.482160938E1,1.654060364E-1,2.035766602E0,9.941875763E0,1.014951223E1
1.483158838E1,2.392025757E-1,2.016007690E0,9.741592255E0,9.950885616E0
1.484156737E1,2.520758057E-1,1.899250488E0,9.649833069E0,9.838189513E0
1.485154637E1,2.339634705E-1,1.765279083E0,9.665400696E0,9.828067957E0
1.486152538E1,1.345701599E-1,1.622026978E0,9.788594513E0,9.922986606E0
1.487150438E1,-1.242416382E-2,1.484912109E0,1.002630020E1,1.013567038E1
1.488148337E1,-7.185058594E-2,1.503922577E0,1.032657578E1,1.043576125E1
1.489146238E1,-7.394622803E-2,1.635049896E0,1.050515442E1,1.063189191E1
1.490144138E1,-2.993774414E-2,1.648072815E0,1.061861847E1,1.074579445E1
1.491142037E1,1.209484863E-1,1.769470367E0,1.068418213E1,1.083039250E1
1.492139838E1,3.625460815E-1,1.636696472E0,1.063194077E1,1.076328850E1
1.493137738E1,5.294490051E-1,1.356778564E0,1.040770706E1,1.050911655E1
1.494135637E1,7.725434875E-1,1.231938171E0,1.023212219E1,1.033493201E1
1.495133537E1,1.064137115E0,1.385818176E0,1.018407211E1,1.033287011E1
1.496131438E1,1.254092102E0,1.374292145E0,1.006551865E1,1.023601932E1
1.497129338E1,1.342109070E0,1.318607941E0,9.990374908E0,1.016600091E1
1.498127237E1,1.272952881E0,1.358125763E0,9.976603546E0,1.014877002E1
1.499125138E1,1.068478088E0,1.498833160E0,1.005728577E1,1.022434072E1
1.500123038E1,8.014334106E-1,1.637444916E0,1.014590149E1,1.030838680E1
1.501120937E1,5.674699402E-1,1.661544800E0,1.011177246E1,1.026307437E1
1.502118838E1,3.701802063E-1,1.558109894E0,1.008318192E1,1.020956891E1
1.503116738E1,2.451901245E-1,1.483714600E0,9.955647125E0,1.006858664E1
1.504114537E1,1.190025330E-1,1.382525024E0,9.892628174E0,9.989475924E0
1.505112437E1,3.173400879E-2,1.285227356E0,9.780661011E0,9.864793268E0
1.506110338E1,5.194198608E-2,1.250499573E0,9.704170074E0,9.784547204E0
1.507108238E1,9.595046997E-2,1.348545685E0,9.797126770E0,9.889968398E0
1.508106137E1,1.570234680E-1,1.461111603E0,9.973011017E0,1.008069701E1
1.509104038E1,1.746867371E-1,1.578916626E0,1.026999344E1,1.039212483E1
1.510101938E1,1.178050232E-1,1.651066589E0,1.051683014E1,1.064629584E1
1.511099837E1,1.616638184E-2,1.603016510E0,1.059601547E1,1.071659774E1
1.512097738E1,-9.041198730E-2,1.460961914E0,1.043465103E1,1.053681765E1
1.513095638E1,-7.484436035E-3,1.338366852E0,1.020472916E1,1.029212218E1
1.514093538E1,1.666035461E-1,1.126707001E0,9.879006500E0,9.944445426E0
1.515091437E1,3.968247986E-1,1.189576263E0,9.589209137E0,9.670857950E0
1.516089238E1,5.463638306E-1,1.250349884E0,9.335486755E0,9.434680770E0
1.517087138E1,5.047503662E-1,1.250948639E0,9.019194489E0,9.119512852E0
1.518085037E1,4.760101318E-1,1.404978333E0,8.844058685E0,8.967604128E0
1.519082938E1,4.337979126E-1,1.506916351E0,8.679850159E0,8.820361461E0
1.520080838E1,3.990701294E-1,1.631008301E0,8.545729065E0,8.709129135E0
1.521078737E1,3.763174438E-1,1.782493286E0,8.425828400E0,8.620526745E0
1.522076638E1,3.757186890E-1,1.912123718E0,8.323591003E0,8.548657721E0
1.523074538E1,4.231700134E-1,2.017953644E0,8.201744385E0,8.456939205E0
1.524072438E1,4.212240601E-1,2.070943451E0,8.097261658E0,8.368505413E0
1.525070337E1,4.165837097E-1,2.135309601E0,8.067174225E0,8.355380844E0
1.526068238E1,4.784051514E-1,2.143841858E0,8.219707031E0,8.508143927E0
1.527066138E1,5.572911072E-1,2.131866760E0,8.371491394E0,8.656633146E0
1.528063937E1,5.786965942E-1,2.092498627E0,8.525072021E0,8.797175298E0
1.529061838E1,5.592370605E-1,2.005230103E0,8.684191132E0,8.930222252E0
1.530059738E1,4.900808716E-1,1.926942902E0,8.878038025E0,9.097958418E0
1.531057637E1,4.328997803E-1,1.882335663E0,8.984466705E0,9.189735129E0
1.532055538E1,4.064048767E-1,1.832489319E0,9.031319275E0,9.224310807E0
1.533053438E1,4.147874451E-1,1.777254181E0,9.119186554E0,9.300013143E0
1.534051338E1,4.504133606E-1,1.731150055E0,9.151669006E0,9.324848434E0
1.535049237E1,4.571493530E-1,1.711840210E0,9.192234650E0,9.361440076E0
1.536047138E1,4.513114929E-1,1.701661377E0,9.136700134E0,9.304763449E0
1.537045038E1,3.734733582E-1,1.754052429E0,9.094338226E0,9.269475177E0
1.538042937E1,2.838098145E-1,1.847458191E0,9.109307098E0,9.299092729E0
1.539040838E1,1.965412903E-1,1.886676636E0,9.114396515E0,9.309693928E0
1.540038638E1,1.646575928E-1,1.924398193E0,9.151818695E0,9.353406115E0
1.541036537E1,1.883084106E-1,1.970202942E0,9.231004028E0,9.440794196E0
1.542034438E1,2.399510193E-1,2.010319519E0,9.261390839E0,9.480101335E0
1.543032338E1,2.341131592E-1,2.013762360E0,9.240434418E0,9.460215433E0
1.544030238E1,1.366658020E-1,2.026785278E0,9.248218231E0,9.468689273E0
1.545028137E1,1.011895752E-1,2.093396759E0,9.206604767E0,9.442145977E0
1.546026038E1,7.978408813E-2,2.120340729E0,9.182355194E0,9.424322640E0
1.547023938E1,1.161584473E-1,2.189496918E0,9.194629669E0,9.452439066E0
1.548021837E1,2.363584900E-1,2.269131317E0,9.214987335E0,9.493198294E0
1.549019738E1,2.483335876E-1,2.303260345E0,9.214238892E0,9.500993429E0
1.550017638E1,2.887495422E-1,2.464026031E0,9.241482239E0,9.568688236E0
1.551015537E1,3.561094666E-1,2.456990662E0,9.210945740E0,9.539661340E0
1.552013437E1,4.923262024E-1,2.456691284E0,9.193881226E0,9.529174631E0
1.553011238E1,6.099815369E-1,2.299667816E0,9.122779083E0,9.427918526E0
1.554009138E1,5.528004456E-1,2.259102173E0,9.178313599E0,9.468398570E0
1.555007037E1,6.819818115E-1,2.407144318E0,9.378896484E0,9.706860575E0
1.556004938E1,7.378157043E-1,2.402054901E0,9.530680847E0,9.856374444E0
1.557002838E1,6.915618896E-1,2.339784393E0,9.689500580E0,9.991960285E0
1.558000737E1,6.429130554E-1,2.308050385E0,9.925260315E0,1.021034897E1
1.558998638E1,6.867718506E-1,2.311044159E0,1.011102402E1,1.039448832E1
1.559996538E1,7.966433716E-1,2.276765442E0,1.047806076E1,1.075211881E1
1.560994437E1,8.726852417E-1,2.204166412E0,1.087892715E1,1.113422584E1
1.561992337E1,8.428971863E-1,2.126777344E0,1.118249588E1,1.141410845E1
1.562990238E1,5.578898621E-1,1.990261230E0,1.147393982E1,1.165863096E1
1.563988138E1,6.466552734E-2,1.744921417E0,1.175280991E1,1.188181270E1
1.564985937E1,-1.972897339E-1,1.678010559E0,1.198886902E1,1.210733757E1
1.565983838E1,-4.599934387E-1,1.562600555E0,1.195249466E1,1.206297820E1
1.566981738E1,-8.881031799E-1,1.194965057E0,1.173110504E1,1.182520589E1
1.567979637E1,-1.261726227E0,7.077282715E-1,1.147139511E1,1.156225489E1
1.568977538E1,-1.274150391E0,2.588117981E-1,1.131691635E1,1.139135806E1
1.569975438E1,-9.092092896E-1,-1.047821045E-3,1.137739059E1,1.141366196E1
1.570973337E1,-3.869453430E-1,-1.746867371E-1,1.146944916E1,1.147730396E1
1.571971237E1,1.092727661E-1,-2.339634705E-1,1.149384842E1,1.149674871E1
1.572969138E1,5.430706787E-1,-1.498384094E-1,1.134894974E1,1.136292381E1
1.573967038E1,7.252418518E-1,-1.582209778E-1,1.099418747E1,1.101921811E1
1.574964937E1,8.427474976E-1,-2.903961182E-2,1.068088898E1,1.071412414E1
1.575962838E1,9.017248535E-1,2.118095398E-1,1.026325745E1,1.030497086E1
1.576960638E1,8.207432556E-1,4.454736328E-1,9.877659302E0,9.921704467E0
1.577958537E1,7.533833313E-1,6.533912659E-1,9.531279602E0,9.583308272E0
1.578956396E1,7.333250427E-1,8.524772644E-1,9.311536560E0,9.379189529E0
1.579954296E1,7.702981567E-1,1.026116180E0,9.125024414E0,9.214789429E0
1.580952196E1,8.553213501E-1,1.127156067E0,8.991502075E0,9.102151668E0
1.581950096E1,1.016536102E0,1.174308014E0,8.819958801E0,8.955669613E0
1.582947996E1,1.172960815E0,1.189276886E0,8.708440704E0,8.867195503E0
1.583945896E1,1.250948639E0,1.157991943E0,8.611741791E0,8.778833323E0
1.584943796E1,1.287173309E0,1.115031281E0,8.522677002E0,8.691152580E0
1.585941696E1,1.238225098E0,1.068178711E0,8.517737274E0,8.673295534E0
1.586939596E1,1.042881317E0,9.922865295E-1,8.553662567E0,8.673948196E0
1.587937496E1,8.149053955E-1,9.163943481E-1,8.574618988E0,8.661867016E0
1.588935296E1,6.292913818E-1,8.761280823E-1,8.592881012E0,8.660324021E0
1.589933196E1,4.848417664E-1,8.613088989E-1,8.572373657E0,8.629166511E0
1.590931096E1,3.375480652E-1,8.494834900E-1,8.579858093E0,8.628413863E0
1.591928996E1,3.016227722E-1,9.132508850E-1,8.619375916E0,8.672868306E0
1.592926896E1,3.406915283E-1,9.415420532E-1,8.692424011E0,8.749903276E0
1.593924796E1,3.980223083E-1,9.262738037E-1,8.733438721E0,8.791436561E0
1.594922696E1,4.643344116E-1,9.145980835E-1,8.814869385E0,8.874346081E0
1.595920596E1,5.655239868E-1,8.991801453E-1,8.941056976E0,9.003934816E0
1.596918496E1,6.294410706E-1,8.828640747E-1,9.006021881E0,9.071057003E0
1.597916396E1,5.780978394E-1,8.366102600E-1,9.088799744E0,9.145512267E0
1.598914296E1,4.318519592E-1,7.409591675E-1,9.112749939E0,9.153017429E0
1.599912196E1,2.293231201E-1,6.387217712E-1,9.180858307E0,9.205906465E0
1.600910096E1,1.423539734E-1,6.191125488E-1,9.219178619E0,9.241039953E0
1.601907996E1,1.097218323E-1,6.312373352E-1,9.301058350E0,9.323099585E0
1.602905796E1,9.295669556E-2,6.512956238E-1,9.367520142E0,9.390594259E0
1.603903696E1,5.807922363E-2,6.301895142E-1,9.391919403E0,9.413217415E0
1.604901596E1,3.891906738E-2,5.761518860E-1,9.436376953E0,9.454029601E0
1.605899496E1,4.086502075E-2,5.882766724E-1,9.449549561E0,9.467931468E0
1.606897396E1,6.810836792E-2,5.795947266E-1,9.483079834E0,9.501019521E0
1.607895296E1,1.318757629E-1,5.710624695E-1,9.511221313E0,9.529262009E0
1.608893196E1,2.273771667E-1,6.066883850E-1,9.546847229E0,9.568806780E0
1.609891096E1,3.520678711E-1,6.634204102E-1,9.509125671E0,9.538739406E0
1.610888996E1,4.085005188E-1,6.976991272E-1,9.457483063E0,9.491977804E0
1.611886896E1,4.833448792E-1,7.217990112E-1,9.387578430E0,9.427685022E0
1.612884796E1,6.203100586E-1,8.159532166E-1,9.389075317E0,9.444855718E0
1.613882696E1,7.213499451E-1,8.571176147E-1,9.393865356E0,9.460428251E0
1.614880496E1,7.526348877E-1,8.788224792E-1,9.410929871E0,9.481792513E0
1.615878396E1,7.717950439E-1,9.223818970E-1,9.395062866E0,9.471729632E0
1.616876296E1,7.643106079E-1,9.871971130E-1,9.414971466E0,9.497389986E0
1.617874196E1,7.189549255E-1,1.027912445E0,9.427545319E0,9.510631468E0
1.618872096E1,6.348298645E-1,1.050365753E0,9.471703491E0,9.550887090E0
1.619869996E1,5.141807556E-1,1.034798126E0,9.540560303E0,9.610279908E0
1.620867896E1,4.031117249E-1,9.993218994E-1,9.690698090E0,9.750424236E0
1.621865796E1,3.067121887E-1,9.804611206E-1,9.844278717E0,9.897737107E0
1.622863696E1,1.402583313E-1,9.071136475E-1,9.949210510E0,9.991462223E0
1.623861596E1,-9.879455566E-2,7.601193237E-1,1.001821701E1,1.004749789E1
1.624859496E1,-2.317181396E-1,6.445596313E-1,1.012629227E1,1.014943080E1
1.625857396E1,-2.079176331E-1,6.155200195E-1,1.021805145E1,1.023868498E1
1.626855296E1,-1.010398865E-1,6.553372192E-1,1.035262161E1,1.037383488E1
1.627853196E1,1.960922241E-2,6.331832886E-1,1.047821045E1,1.049734251E1
1.628850996E1,1.570234680E-1,6.298901367E-1,1.056592804E1,1.058585156E1
1.629848896E1,3.432362366E-1,6.941065979E-1,1.071352112E1,1.074146777E1
1.630846796E1,4.044589233E-1,6.724017334E-1,1.084330124E1,1.087165548E1
1.631844696E1,3.826043701E-1,4.882846069E-1,1.102322708E1,1.104066770E1
1.632842596E1,3.077600098E-1,3.017724609E-1,1.120285355E1,1.121114224E1
1.633840496E1,1.073268127E-1,4.834945679E-2,1.110854965E1,1.110917333E1
1.634838396E1,-1.200503540E-1,-1.790277100E-1,1.089688980E1,1.089902153E1
1.635836296E1,-1.989363098E-1,-2.426454163E-1,1.066217789E1,1.066679379E1
1.636834196E1,-2.198927307E-1,-1.544787598E-1,1.049003586E1,1.049347744E1
1.637832096E1,-1.839674377E-1,-3.323089600E-2,1.041459274E1,1.041627046E1
1.638829996E1,-1.098715210E-1,1.216969299E-1,1.037417679E1,1.037547232E1
1.639827896E1,-6.137237549E-3,2.418969727E-1,1.027568161E1,1.027853026E1
1.640825796E1,1.061293030E-1,3.231779480E-1,1.018616776E1,1.019184581E1
1.641823596E1,2.436932373E-1,4.490661621E-1,1.011012589E1,1.012302782E1
1.642821496E1,3.844006348E-1,6.400689697E-1,1.005189697E1,1.007958754E1
1.643819396E1,3.507206726E-1,7.262896729E-1,9.920769653E0,9.953500499E0
1.644817296E1,2.392025757E-1,7.222480774E-1,9.807604980E0,9.837071496E0
1.645815196E1,1.116677856E-1,6.975494385E-1,9.790989532E0,9.816441358E0
1.646813096E1,1.407073975E-2,6.271957397E-1,9.796677704E0,9.816744191E0
1.647810996E1,-7.664062500E-2,5.131329346E-1,9.900411987E0,9.913997010E0
1.648808896E1,-9.145980835E-2,3.607498169E-1,9.992620239E0,9.999548218E0
1.649806796E1,4.640350342E-2,2.793191528E-1,1.012015503E1,1.012411528E1
1.650804696E1,2.369572449E-1,2.547702026E-1,1.017748581E1,1.018343135E1
1.651802596E1,3.692820740E-1,2.332150269E-1,1.013407608E1,1.014348345E1
1.652800496E1,5.050497437E-1,2.047741699E-1,1.008422974E1,1.009894534E1
1.653798396E1,5.899232483E-1,2.249821472E-1,1.005459137E1,1.007439497E1
1.654796196E1,5.508544922E-1,2.269281006E-1,9.921069031E0,9.938940977E0
1.655794096E1,5.128335571E-1,2.712359619E-1,9.743089142E0,9.760345959E0
1.656791996E1,4.549040222E-1,3.579057312E-1,9.501940613E0,9.519554065E0
1.657789896E1,3.944297791E-1,4.233197021E-1,9.256151733E0,9.274217990E0
1.658787796E1,4.215234375E-1,5.056484985E-1,9.028624878E0,9.052592424E0
1.659785696E1,4.421804810E-1,5.635780334E-1,8.876840515E0,8.905697126E0
1.660783596E1,4.210743713E-1,5.212161255E-1,8.765023041E0,8.790597180E0
1.661781496E1,4.498146057E-1,4.959187317E-1,8.772956543E0,8.798467768E0
1.662779396E1,4.930746460E-1,4.932243347E-1,8.851393433E0,8.878826417E0
1.663777296E1,4.867877197E-1,3.989204407E-1,8.990005188E0,9.012008271E0
1.664775196E1,5.307962036E-1,3.498225403E-1,9.129964142E0,9.152068927E0
1.665773096E1,6.415658569E-1,3.487747192E-1,9.243727570E0,9.272526621E0
1.666770996E1,7.472460938E-1,3.447331238E-1,9.248816986E0,9.285355852E0
1.667768896E1,7.554789734E-1,3.385958862E-1,9.126371613E0,9.163844961E0
1.668766696E1,7.473957825E-1,2.914439392E-1,8.944350128E0,8.980252738E0
1.669764596E1,7.616162109E-1,2.972817993E-1,8.819210358E0,8.857025858E0
1.670762496E1,7.890092468E-1,3.863465881E-1,8.713081055E0,8.757258746E0
1.671760396E1,7.896080017E-1,4.531077576E-1,8.634344788E0,8.682205788E0
1.672758296E1,7.565267944E-1,5.309458923E-1,8.590186615E0,8.639765183E0
