"Time (s)","Acceleration x (m/s^2)","Acceleration y (m/s^2)","Acceleration z (m/s^2)","Absolute acceleration (m/s^2)"
8.402917301E-4,-7.403604126E-1,1.674268341E0,9.760003967E0,9.930205711E0
1.081929170E-2,-5.984555054E-1,1.744622040E0,9.688303070E0,9.862305584E0
2.079829166E-2,-5.412744141E-1,1.796264648E0,9.657467194E0,9.837998642E0
3.077829175E-2,-5.158273315E-1,1.801204376E0,9.575288086E0,9.756872294E0
4.075729172E-2,-5.364843750E-1,1.816921692E0,9.454339600E0,9.642279667E0
5.073629168E-2,-5.999523926E-1,1.838626556E0,9.306746521E0,9.505578430E0
6.071529165E-2,-8.508306885E-1,1.802401886E0,9.020691376E0,9.238259485E0
7.069429173E-2,-9.321116638E-1,1.860481110E0,8.729397125E0,8.973995558E0
8.067329170E-2,-7.812254333E-1,1.955533447E0,9.061257019E0,9.302730943E0
9.065229166E-2,-7.583230591E-1,1.821262665E0,9.288185120E0,9.495390164E0
1.006312917E-1,-7.240443420E-1,1.676214294E0,9.432185669E0,9.607292078E0
1.106102917E-1,-6.146218872E-1,1.638193359E0,9.532626801E0,9.691873465E0
1.205892917E-1,-5.209167480E-1,1.618584137E0,9.523495789E0,9.674096387E0
1.305692917E-1,-4.842430115E-1,1.558409271E0,9.461524658E0,9.601228026E0
1.405482917E-1,-4.674778748E-1,1.494043121E0,9.423054657E0,9.552207048E0
1.505272917E-1,-4.321513367E-1,1.478924561E0,9.392817535E0,9.518350376E0
1.605062917E-1,-4.189787292E-1,1.489851837E0,9.440119171E0,9.566140896E0
1.704852917E-1,-4.334985352E-1,1.506317596E0,9.509724426E0,9.638037785E0
1.804642917E-1,-4.608915710E-1,1.543290710E0,9.630523224E0,9.764279022E0
1.904432917E-1,-4.724176025E-1,1.587149506E0,9.744286652E0,9.883994349E0
2.004222918E-1,-4.387376404E-1,1.615290985E0,9.817334747E0,9.959001819E0
2.104012917E-1,-4.426295471E-1,1.639989624E0,9.768236847E0,9.914834239E0
2.203802917E-1,-4.872367859E-1,1.632654877E0,9.770781555E0,9.918222312E0
2.303602917E-1,-5.075944519E-1,1.630409546E0,9.774224396E0,9.922265364E0
2.403392917E-1,-5.119354248E-1,1.672621765E0,9.759255524E0,9.914777346E0
2.503182917E-1,-5.233117676E-1,1.685794373E0,9.764045563E0,9.922315437E0
2.602972917E-1,-5.752537537E-1,1.653611298E0,9.776020660E0,9.931562171E0
2.702762918E-1,-6.417155457E-1,1.616638184E0,9.786798248E0,9.940157836E0
2.802552917E-1,-6.655160522E-1,1.602118378E0,9.778265991E0,9.930970784E0
2.902342917E-1,-6.526428223E-1,1.599124603E0,9.745184784E0,9.897058584E0
3.002132917E-1,-6.035449219E-1,1.592238922E0,9.732012177E0,9.879855883E0
3.101922917E-1,-5.468128967E-1,1.609602814E0,9.698781281E0,9.846633125E0
3.201712917E-1,-5.201683044E-1,1.599723358E0,9.672735443E0,9.817917337E0
3.301512917E-1,-5.339396667E-1,1.576521606E0,9.665700073E0,9.807969711E0
3.401302918E-1,-5.478607178E-1,1.549877014E0,9.675729218E0,9.814377515E0
3.501092917E-1,-5.170248413E-1,1.542691956E0,9.701775055E0,9.837258377E0
3.600882917E-1,-4.962181091E-1,1.573527832E0,9.776170349E0,9.914420253E0
3.700672917E-1,-4.665797424E-1,1.625918884E0,9.780211945E0,9.925414579E0
3.800462917E-1,-4.706213379E-1,1.660496979E0,9.773176575E0,9.924399983E0
3.900252917E-1,-4.748126221E-1,1.662442932E0,9.717043304E0,9.869655217E0
4.000042917E-1,-4.733157349E-1,1.663191376E0,9.668544159E0,9.821964136E0
4.099832918E-1,-4.653822327E-1,1.679357758E0,9.585317230E0,9.742439607E0
4.199622917E-1,-4.538562012E-1,1.715732117E0,9.547146606E0,9.710701853E0
4.299422917E-1,-4.613406372E-1,1.732796631E0,9.565857697E0,9.732474137E0
4.399212917E-1,-4.477189636E-1,1.730401611E0,9.530231781E0,9.696394165E0
4.499002917E-1,-4.119433594E-1,1.726060638E0,9.525591431E0,9.689472368E0
4.598792917E-1,-3.751199341E-1,1.720971222E0,9.495503998E0,9.657486893E0
4.698582917E-1,-3.680845642E-1,1.731898499E0,9.482032013E0,9.645926070E0
4.798372918E-1,-3.824546814E-1,1.730251923E0,9.469757538E0,9.634124305E0
4.898162917E-1,-3.839515686E-1,1.720372467E0,9.446855164E0,9.609899724E0
4.997952917E-1,-4.105961609E-1,1.717528381E0,9.466165009E0,9.629474177E0
5.097742917E-1,-4.373904419E-1,1.711989899E0,9.451495514E0,9.615247644E0
5.197532917E-1,-4.257147217E-1,1.728455658E0,9.458680573E0,9.624730134E0
5.297332917E-1,-4.498146057E-1,1.737287292E0,9.461374969E0,9.630063168E0
5.397122917E-1,-4.933740234E-1,1.729353790E0,9.436975708E0,9.606799309E0
5.496912918E-1,-5.014572144E-1,1.726809082E0,9.446256409E0,9.615876927E0
5.596702917E-1,-4.572990417E-1,1.742376709E0,9.474098511E0,9.643834383E0
5.696492917E-1,-4.257147217E-1,1.743574219E0,9.498497772E0,9.666578713E0
5.796282917E-1,-3.677851868E-1,1.736389160E0,9.487720184E0,9.652313068E0
5.896072917E-1,-3.363505554E-1,1.729802856E0,9.492061157E0,9.654251635E0
5.995862917E-1,-3.510200500E-1,1.706900482E0,9.524244232E0,9.682352634E0
6.095652917E-1,-3.543132019E-1,1.639390869E0,9.564809875E0,9.710753226E0
6.195442918E-1,-3.499722290E-1,1.641935577E0,9.610464935E0,9.755996580E0
6.295242917E-1,-3.707789612E-1,1.635648651E0,9.643995209E0,9.788741857E0
6.395032917E-1,-3.697311401E-1,1.608255615E0,9.658664703E0,9.798621898E0
6.494822917E-1,-3.535647583E-1,1.609902191E0,9.666298828E0,9.805821033E0
6.594612917E-1,-3.565585327E-1,1.600322113E0,9.699380035E0,9.836978089E0
6.694402917E-1,-3.854484558E-1,1.598226471E0,9.735305328E0,9.873148849E0
6.794192917E-1,-4.311035156E-1,1.592987366E0,9.770631866E0,9.909021448E0
6.893982918E-1,-4.605921936E-1,1.592687988E0,9.792785797E0,9.932142461E0
6.993772917E-1,-4.671784973E-1,1.565145264E0,9.797875214E0,9.933090866E0
7.093562917E-1,-4.903802490E-1,1.577419739E0,9.786648560E0,9.925080143E0
7.193352917E-1,-4.730163574E-1,1.608105927E0,9.792486420E0,9.934915169E0
7.293152917E-1,-4.731660461E-1,1.651815033E0,9.776918793E0,9.926757783E0
7.392942917E-1,-5.037025452E-1,1.667232971E0,9.713301086E0,9.868211592E0
7.492732917E-1,-4.992118835E-1,1.668580170E0,9.652976532E0,9.808839290E0
7.592522918E-1,-5.057981873E-1,1.699565735E0,9.587562561E0,9.750164683E0
7.692312917E-1,-5.237608337E-1,1.741029510E0,9.561217346E0,9.732542644E0
7.792102917E-1,-5.613327026E-1,1.775158539E0,9.478439484E0,9.659559891E0
7.891897084E-1,-5.629792786E-1,1.797312469E0,9.446855164E0,9.632774796E0
7.991687084E-1,-5.418731689E-1,1.864073639E0,9.376950531E0,9.575781865E0
8.091477084E-1,-5.237608337E-1,1.878144379E0,9.299711151E0,9.501914502E0
8.191267083E-1,-5.188211060E-1,1.809736633E0,9.276509399E0,9.465619296E0
8.291067084E-1,-4.752616882E-1,1.786235504E0,9.251212006E0,9.434057161E0
8.390857084E-1,-3.646417236E-1,1.781744843E0,9.360634460E0,9.535672801E0
8.490647083E-1,-3.592529297E-1,1.732946320E0,9.430988159E0,9.595608541E0
8.590437084E-1,-3.382965088E-1,1.703158264E0,9.487420807E0,9.645016649E0
8.690227084E-1,-3.071612549E-1,1.670526123E0,9.553134155E0,9.702957165E0
8.790017084E-1,-2.784210205E-1,1.641785889E0,9.534123688E0,9.678455128E0
8.889807083E-1,-2.553689575E-1,1.639690247E0,9.502689056E0,9.646496603E0
8.989597084E-1,-2.679428101E-1,1.654509430E0,9.516161041E0,9.662635032E0
9.089387084E-1,-2.953358459E-1,1.647923126E0,9.517957306E0,9.664077047E0
9.189177083E-1,-2.996768188E-1,1.656156006E0,9.525741119E0,9.673282937E0
9.288967084E-1,-3.501219177E-1,1.648671570E0,9.537566528E0,9.685343493E0
9.388767084E-1,-3.782633972E-1,1.636995850E0,9.569899292E0,9.716265284E0
9.488557084E-1,-3.959266663E-1,1.678160248E0,9.632020111E0,9.785131126E0
9.588347083E-1,-4.340972900E-1,1.681453400E0,9.680369568E0,9.834901167E0
9.688137084E-1,-4.417314148E-1,1.691482544E0,9.674980774E0,9.831657684E0
9.787927084E-1,-4.219725037E-1,1.724414063E0,9.688153381E0,9.849466005E0
9.887717083E-1,-4.239184570E-1,1.758692780E0,9.635612640E0,9.803965428E0
9.987507084E-1,-4.387376404E-1,1.761087799E0,9.565708008E0,9.736359209E0
1.008729708E0,-4.710704041E-1,1.745969238E0,9.530082092E0,9.700143328E0
1.018708708E0,-4.851411438E-1,1.783391418E0,9.512867889E0,9.690743127E0
1.028687708E0,-4.854405212E-1,1.810485077E0,9.523795166E0,9.706502103E0
1.038667708E0,-5.248086548E-1,1.845961304E0,9.542805634E0,9.733865451E0
1.048646708E0,-5.406756592E-1,1.831890564E0,9.564061432E0,9.752918757E0
1.058625708E0,-5.349874878E-1,1.845811615E0,9.555828552E0,9.747158122E0
1.068604708E0,-5.105882263E-1,1.846859436E0,9.527986450E0,9.718750738E0
1.078583708E0,-4.716691589E-1,1.867366791E0,9.483977966E0,9.677570387E0
1.088562708E0,-4.700225830E-1,1.864073639E0,9.454189911E0,9.647662858E0
1.098541708E0,-4.496649170E-1,1.863624573E0,9.444609833E0,9.637216921E0
1.108520708E0,-4.634362793E-1,1.850601654E0,9.463171234E0,9.653554240E0
1.118499708E0,-4.661306763E-1,1.814077606E0,9.490863647E0,9.673915864E0
1.128478708E0,-4.743635559E-1,1.803000641E0,9.526788940E0,9.707499143E0
1.138458708E0,-4.968168640E-1,1.769470367E0,9.581575012E0,9.756250924E0
1.148437708E0,-4.688250732E-1,1.746567993E0,9.609716492E0,9.778391880E0
1.158416708E0,-4.534071350E-1,1.739981689E0,9.663155365E0,9.829022633E0
1.168395708E0,-4.921765137E-1,1.722617798E0,9.700577545E0,9.864626425E0
1.178374708E0,-4.818479919E-1,1.697021027E0,9.708061981E0,9.867042378E0
1.188353708E0,-4.168830872E-1,1.718576202E0,9.729916534E0,9.889316025E0
1.198332708E0,-3.722758484E-1,1.725012817E0,9.719887390E0,9.878788863E0
1.208311708E0,-3.218307495E-1,1.717079315E0,9.661508789E0,9.818181526E0
1.218290708E0,-3.022215271E-1,1.705553284E0,9.610914001E0,9.765752290E0
1.228269708E0,-2.972817993E-1,1.709894257E0,9.578880615E0,9.734837887E0
1.238248708E0,-3.436853027E-1,1.727258148E0,9.562564545E0,9.723383206E0
1.248228708E0,-3.844006348E-1,1.738035736E0,9.563312988E0,9.727563281E0
1.258207708E0,-4.385879517E-1,1.740879822E0,9.565708008E0,9.732717587E0
1.268186708E0,-4.962181091E-1,1.749262390E0,9.588311005E0,9.759193575E0
1.278165708E0,-4.915777588E-1,1.773661652E0,9.585017853E0,9.760127642E0
1.288144708E0,-4.537065125E-1,1.813778229E0,9.579329681E0,9.760081875E0
1.298123708E0,-4.439767456E-1,1.820514221E0,9.538614349E0,9.720933653E0
1.308102708E0,-4.661306763E-1,1.804647217E0,9.494456177E0,9.675677107E0
1.318081708E0,-4.381388855E-1,1.854194183E0,9.479337616E0,9.668911179E0
1.328060708E0,-4.375401306E-1,1.891466675E0,9.473200378E0,9.670088570E0
1.338039708E0,-4.671784973E-1,1.881287842E0,9.468260651E0,9.664649991E0
1.348019708E0,-5.105882263E-1,1.875449982E0,9.472152557E0,9.669523620E0
1.357998708E0,-5.171745300E-1,1.867965546E0,9.467063141E0,9.663438792E0
1.367977708E0,-5.312452698E-1,1.882485352E0,9.506880341E0,9.706015992E0
1.377956708E0,-5.291496277E-1,1.866169281E0,9.523795166E0,9.719324127E0
1.387935708E0,-5.291496277E-1,1.862876129E0,9.528734894E0,9.723533076E0
1.397914708E0,-5.355862427E-1,1.851649475E0,9.527986450E0,9.721007365E0
1.407893708E0,-5.105882263E-1,1.867217102E0,9.514664154E0,9.709584646E0
1.417872708E0,-4.996609497E-1,1.864373016E0,9.505832520E0,9.699814416E0
1.427851708E0,-5.123844910E-1,1.866468658E0,9.485325165E0,9.680786983E0
1.437830708E0,-5.432203674E-1,1.799707489E0,9.491312714E0,9.675693900E0
1.447809708E0,-5.273533630E-1,1.800904999E0,9.517807617E0,9.701032018E0
1.457789708E0,-4.870870972E-1,1.806593170E0,9.549092560E0,9.730683503E0
1.467768708E0,-4.659809875E-1,1.803150330E0,9.569599915E0,9.749140060E0
1.477747708E0,-4.370910645E-1,1.826801147E0,9.565408630E0,9.748091777E0
1.487726708E0,-4.233197021E-1,1.847607880E0,9.566306763E0,9.752285862E0
1.497705708E0,-4.049079895E-1,1.850451965E0,9.560917969E0,9.746757172E0
1.507684708E0,-4.189787292E-1,1.869612122E0,9.570048981E0,9.759960561E0
1.517663708E0,-4.111949158E-1,1.845661926E0,9.578880615E0,9.763734073E0
1.527642708E0,-4.158352661E-1,1.809886322E0,9.612859955E0,9.790591605E0
1.537621708E0,-4.444258118E-1,1.783092041E0,9.651180267E0,9.824571852E0
1.547600708E0,-4.543052673E-1,1.768572235E0,9.680369568E0,9.851080956E0
1.557580708E0,-4.228706360E-1,1.760339355E0,9.687105560E0,9.854827668E0
1.567559708E0,-3.812571716E-1,1.769919434E0,9.653275909E0,9.821593945E0
1.577538708E0,-3.582051086E-1,1.778152313E0,9.595945129E0,9.765874230E0
1.587517708E0,-3.532653809E-1,1.775757294E0,9.534722443E0,9.705103938E0
1.597496708E0,-3.679348755E-1,1.755549316E0,9.498647461E0,9.666521249E0
1.607475708E0,-3.927832031E-1,1.757345581E0,9.487420807E0,9.656795312E0
1.617454708E0,-3.812571716E-1,1.773212585E0,9.504335632E0,9.675848062E0
1.627433708E0,-3.821553040E-1,1.782343597E0,9.498348083E0,9.671680707E0
1.637412708E0,-3.884422302E-1,1.809736633E0,9.495054932E0,9.673784275E0
1.647391708E0,-4.101470947E-1,1.809437256E0,9.464817810E0,9.644949974E0
1.657370708E0,-4.267625427E-1,1.799108734E0,9.403445435E0,9.583512120E0
1.667350708E0,-4.261637878E-1,1.847308502E0,9.368418274E0,9.558317071E0
1.677329708E0,-4.682263184E-1,1.861977997E0,9.375902710E0,9.570462349E0
1.687308708E0,-5.001100159E-1,1.855242004E0,9.394015045E0,9.588511438E0
1.697287708E0,-5.207670593E-1,1.859283600E0,9.468410339E0,9.663277301E0
1.707266708E0,-4.983137512E-1,1.859283600E0,9.566306763E0,9.758046791E0
1.717245708E0,-5.011578369E-1,1.877096558E0,9.651329956E0,9.844938831E0
1.727224708E0,-5.146298218E-1,1.868863678E0,9.685009918E0,9.877090281E0
1.737203708E0,-5.340893555E-1,1.845063171E0,9.685608673E0,9.874235409E0
1.747182708E0,-5.102888489E-1,1.847458191E0,9.680369568E0,9.868285132E0
1.757161708E0,-4.763095093E-1,1.855242004E0,9.695488129E0,9.882878310E0
1.767141708E0,-4.644841003E-1,1.867366791E0,9.705966339E0,9.894876795E0
1.777120708E0,-4.914280701E-1,1.872306519E0,9.687255249E0,9.878762448E0
1.787099292E0,-4.998106384E-1,1.874851227E0,9.664352875E0,9.857210269E0
1.797078292E0,-5.022056580E-1,1.879790955E0,9.621841278E0,9.816600946E0
1.807057292E0,-4.882846069E-1,1.895358582E0,9.542955322E0,9.741601629E0
1.817036292E0,-4.819976807E-1,1.883533173E0,9.500743103E0,9.697635716E0
1.827015292E0,-4.866380310E-1,1.880689087E0,9.491612091E0,9.688369734E0
1.836994292E0,-4.567002869E-1,1.888472900E0,9.487869873E0,9.684760182E0
1.846973292E0,-4.390370178E-1,1.868414612E0,9.523944855E0,9.715413129E0
1.856952292E0,-4.011657715E-1,1.863624573E0,9.535919952E0,9.724597671E0
1.866931292E0,-3.700305176E-1,1.869312744E0,9.557924194E0,9.746033430E0
1.876911292E0,-3.520678711E-1,1.831291809E0,9.577383728E0,9.757246566E0
1.886890292E0,-3.620970154E-1,1.805545349E0,9.567504272E0,9.743112760E0
1.896869292E0,-3.399430847E-1,1.796564026E0,9.560468903E0,9.733743845E0
1.906848292E0,-3.007246399E-1,1.800755310E0,9.536518707E0,9.709703603E0
1.916827292E0,-2.761756897E-1,1.796264648E0,9.510622559E0,9.682705260E0
1.926806292E0,-2.758763123E-1,1.797611847E0,9.487271118E0,9.660011872E0
1.936785292E0,-2.727328491E-1,1.811981964E0,9.466913452E0,9.642619569E0
1.946764292E0,-2.977308655E-1,1.796114960E0,9.440418549E0,9.614373354E0
1.956743292E0,-3.448828125E-1,1.755549316E0,9.423054657E0,9.591394926E0
1.966722292E0,-3.513194275E-1,1.751507721E0,9.443711700E0,9.611185948E0
1.976702292E0,-3.278182983E-1,1.778900757E0,9.524244232E0,9.694492299E0
1.986681292E0,-3.237767029E-1,1.809736633E0,9.569749603E0,9.744746559E0
1.996660292E0,-3.397933960E-1,1.795665894E0,9.577533417E0,9.750334451E0
2.006639292E0,-3.625460815E-1,1.785187683E0,9.563911743E0,9.735848322E0
2.016618292E0,-3.522175598E-1,1.794019318E0,9.583520966E0,9.756353654E0
2.026597292E0,-3.812571716E-1,1.779798889E0,9.599986725E0,9.771017666E0
2.036576292E0,-4.137396240E-1,1.783990173E0,9.608069916E0,9.781043345E0
2.046555292E0,-4.391867065E-1,1.801054688E0,9.671987000E0,9.848046277E0
2.056534292E0,-4.454736328E-1,1.827100525E0,9.713600464E0,9.893976807E0
2.066513292E0,-4.400848389E-1,1.837578735E0,9.712552643E0,9.894647498E0
2.076492292E0,-4.537065125E-1,1.839375000E0,9.694440308E0,9.877819743E0
2.086472292E0,-4.466711426E-1,1.844763794E0,9.661059723E0,9.845747485E0
2.096451292E0,-3.953279114E-1,1.870210876E0,9.669591980E0,9.856722677E0
2.106430292E0,-3.864962769E-1,1.898052979E0,9.684261475E0,9.876077399E0
2.116409292E0,-4.064048767E-1,1.902244263E0,9.668544159E0,9.862273790E0
2.126388292E0,-4.445755005E-1,1.895807648E0,9.652228088E0,9.846686807E0
2.136367292E0,-4.567002869E-1,1.873953094E0,9.640552368E0,9.831608481E0
2.146346292E0,-4.715194702E-1,1.882335663E0,9.630523224E0,9.824077347E0
2.156325292E0,-4.794529724E-1,1.870809631E0,9.586814117E0,9.779407382E0
2.166304292E0,-4.728666687E-1,1.859283600E0,9.542955322E0,9.733885898E0
2.176283292E0,-4.366419983E-1,1.891017609E0,9.508377228E0,9.704423802E0
2.186262292E0,-4.197271729E-1,1.897603912E0,9.460027771E0,9.657597886E0
2.196242292E0,-4.089495850E-1,1.887275391E0,9.425150299E0,9.620941031E0
2.206221292E0,-3.980223083E-1,1.866019592E0,9.385333099E0,9.577313207E0
2.216200292E0,-3.842509460E-1,1.834584961E0,9.354048157E0,9.539998306E0
2.226179292E0,-3.631448364E-1,1.822160797E0,9.375453644E0,9.557786102E0
2.236158292E0,-3.378474426E-1,1.824106750E0,9.410031738E0,9.591152363E0
2.246137292E0,-3.198847961E-1,1.809586945E0,9.460925903E0,9.637740925E0
2.256116292E0,-3.309617615E-1,1.770967255E0,9.477691040E0,9.647408365E0
2.266095292E0,-3.391946411E-1,1.747915192E0,9.511520691E0,9.676739450E0
2.276074292E0,-3.064128113E-1,1.763931885E0,9.507628784E0,9.674727366E0
2.286053292E0,-2.615061951E-1,1.792821808E0,9.503437500E0,9.674601792E0
2.296032292E0,-2.398013306E-1,1.792971497E0,9.470056915E0,9.641277376E0
2.306012292E0,-2.037263489E-1,1.800006866E0,9.429640961E0,9.602065288E0
2.315991292E0,-2.064207458E-1,1.825304260E0,9.410630493E0,9.588238183E0
2.325970292E0,-2.592608643E-1,1.814077606E0,9.421258392E0,9.597822850E0
2.335949292E0,-3.158432007E-1,1.798959045E0,9.449399872E0,9.624300936E0
2.345928292E0,-3.351530457E-1,1.811682587E0,9.511071625E0,9.687879273E0
2.355907292E0,-3.564088440E-1,1.793121185E0,9.565558319E0,9.738696874E0
2.365886292E0,-3.493734741E-1,1.766476593E0,9.597142639E0,9.764612036E0
2.375865292E0,-3.643423462E-1,1.766775970E0,9.638456726E0,9.805819228E0
2.385844292E0,-3.763174438E-1,1.780846710E0,9.662406921E0,9.832351567E0
2.395823292E0,-3.858975220E-1,1.772164764E0,9.660311279E0,9.829094509E0
2.405802292E0,-4.102967834E-1,1.791923676E0,9.668544159E0,9.841751880E0
2.415782292E0,-4.300556946E-1,1.816173248E0,9.652078400E0,9.830872321E0
2.425761292E0,-4.336482239E-1,1.827399902E0,9.654174042E0,9.835167391E0
2.435740292E0,-4.314028931E-1,1.817071381E0,9.673034821E0,9.851672929E0
2.445719292E0,-4.146377563E-1,1.819017334E0,9.668544159E0,9.846902796E0
2.455698292E0,-4.046086121E-1,1.812131653E0,9.654323730E0,9.831250986E0
2.465677292E0,-3.826043701E-1,1.812580719E0,9.661359100E0,9.837362179E0
2.475656292E0,-3.736230469E-1,1.814826050E0,9.643695831E0,9.820084371E0
2.485635292E0,-4.061054993E-1,1.812131653E0,9.599537659E0,9.777518400E0
2.495614292E0,-4.168830872E-1,1.795216827E0,9.582024078E0,9.757652402E0
2.505593292E0,-4.364923096E-1,1.763333130E0,9.579629059E0,9.750341644E0
2.515572292E0,-3.960763550E-1,1.787283325E0,9.558672638E0,9.732393373E0
2.525552292E0,-3.607498169E-1,1.836381226E0,9.554181976E0,9.735750083E0
2.535531292E0,-3.842509460E-1,1.832788696E0,9.525741119E0,9.708064023E0
2.545510292E0,-4.327500916E-1,1.816472626E0,9.504335632E0,9.686033309E0
2.555489292E0,-4.653822327E-1,1.806593170E0,9.480385437E0,9.662197863E0
2.565468292E0,-4.843927002E-1,1.779649200E0,9.479936371E0,9.657690260E0
2.575447292E0,-4.903802490E-1,1.771566010E0,9.525741119E0,9.701477351E0
2.585426292E0,-4.670288086E-1,1.788929901E0,9.560768280E0,9.737898962E0
2.595405292E0,-4.016148376E-1,1.821112976E0,9.588161316E0,9.767834170E0
2.605384292E0,-3.381468201E-1,1.851050720E0,9.577383728E0,9.760482115E0
2.615363292E0,-3.519181824E-1,1.821562042E0,9.536818085E0,9.715597453E0
2.625343292E0,-3.900888062E-1,1.782942352E0,9.490115204E0,9.664022935E0
2.635322292E0,-4.174818420E-1,1.801204376E0,9.513466644E0,9.691474392E0
2.645301292E0,-4.052073669E-1,1.850451965E0,9.567204895E0,9.752936737E0
2.655280292E0,-4.132905579E-1,1.879341888E0,9.576186218E0,9.767603468E0
2.665259292E0,-3.866459656E-1,1.901196442E0,9.577084351E0,9.771621548E0
2.675238292E0,-3.670367432E-1,1.919907532E0,9.584568787E0,9.781856661E0
2.685217292E0,-3.718267822E-1,1.914219360E0,9.583071899E0,9.779455913E0
2.695196292E0,-4.156855774E-1,1.905537415E0,9.615853729E0,9.811651761E0
2.705175292E0,-4.411326599E-1,1.903890839E0,9.668693848E0,9.864230283E0
2.715154292E0,-4.578977966E-1,1.857786713E0,9.712402954E0,9.899081422E0
2.725133292E0,-4.580474854E-1,1.842368774E0,9.752669220E0,9.935727810E0
2.735112292E0,-3.933819580E-1,1.837728424E0,9.751172333E0,9.930627220E0
2.745092292E0,-3.570075989E-1,1.844314728E0,9.712702332E0,9.892701240E0
2.755071292E0,-3.689826965E-1,1.832938385E0,9.629924469E0,9.809753138E0
2.765050292E0,-3.601510620E-1,1.807640991E0,9.575737152E0,9.751513562E0
2.775029292E0,-3.462300110E-1,1.823807373E0,9.541458435E0,9.720369212E0
2.785008167E0,-3.445834351E-1,1.829944611E0,9.509874115E0,9.690466485E0
2.794987167E0,-3.456312561E-1,1.805545349E0,9.507329407E0,9.683427462E0
2.804966167E0,-3.399430847E-1,1.800455933E0,9.505233765E0,9.680220648E0
2.814945167E0,-3.055146790E-1,1.782044220E0,9.471404114E0,9.642433132E0
2.824924167E0,-2.814147949E-1,1.750759277E0,9.430539093E0,9.595802203E0
2.834903167E0,-2.721340942E-1,1.741179199E0,9.392218781E0,9.556125553E0
2.844882167E0,-2.564167786E-1,1.763931885E0,9.375154266E0,9.543098175E0
2.854862167E0,-2.523751831E-1,1.786834259E0,9.366771698E0,9.539018919E0
2.864841167E0,-2.727328491E-1,1.802102509E0,9.378597107E0,9.554058842E0
2.874820167E0,-2.763253784E-1,1.802850952E0,9.354796600E0,9.530941543E0
2.884799167E0,-2.700384521E-1,1.832189941E0,9.381890259E0,9.562933942E0
2.894778167E0,-3.132984924E-1,1.838626556E0,9.415869598E0,9.598817836E0
2.904757167E0,-3.736230469E-1,1.800306244E0,9.490115204E0,9.666591092E0
2.914736167E0,-3.691323853E-1,1.799707489E0,9.577234039E0,9.751852009E0
2.924715167E0,-3.556604004E-1,1.814376984E0,9.646090851E0,9.821686559E0
2.934694167E0,-3.791615295E-1,1.786983948E0,9.688602448E0,9.859315011E0
2.944673167E0,-3.867956543E-1,1.790426788E0,9.700727234E0,9.872150112E0
2.954652167E0,-3.912863159E-1,1.807341614E0,9.709708557E0,9.884231328E0
2.964632167E0,-4.227209473E-1,1.835183716E0,9.672436066E0,9.854065745E0
2.974611167E0,-4.915777588E-1,1.864073639E0,9.680668945E0,9.870753287E0
2.984590167E0,-5.041516113E-1,1.895208893E0,9.669142914E0,9.866017955E0
2.994569167E0,-5.218148804E-1,1.896256714E0,9.654174042E0,9.852469575E0
3.004548167E0,-5.402265930E-1,1.905537415E0,9.636810150E0,9.838243109E0
3.014527167E0,-5.279521179E-1,1.901795197E0,9.648485870E0,9.848291121E0
3.024506167E0,-5.084925842E-1,1.892813873E0,9.635912018E0,9.833214606E0
3.034485167E0,-5.022056580E-1,1.888173523E0,9.609417114E0,9.806034216E0
3.044464167E0,-4.935237122E-1,1.891616364E0,9.585317230E0,9.782642001E0
3.054443167E0,-4.812492371E-1,1.876797180E0,9.550290070E0,9.744845247E0
3.064422167E0,-4.828958130E-1,1.868713989E0,9.522298279E0,9.715937672E0
3.074402167E0,-4.866380310E-1,1.879192200E0,9.525441742E0,9.721225246E0
3.084381167E0,-5.099894714E-1,1.856888580E0,9.491911469E0,9.685272726E0
3.094360167E0,-4.998106384E-1,1.827998657E0,9.473948822E0,9.661630093E0
3.104339167E0,-5.063969421E-1,1.789977722E0,9.492210846E0,9.672772346E0
3.114318167E0,-4.813989258E-1,1.770069122E0,9.504335632E0,9.679735814E0
3.124297167E0,-4.538562012E-1,1.772763519E0,9.519005127E0,9.693303593E0
3.134276167E0,-4.087998962E-1,1.761237488E0,9.535620575E0,9.705520831E0
3.144255167E0,-3.724255371E-1,1.723964996E0,9.556277618E0,9.717674517E0
3.154234167E0,-3.399430847E-1,1.715881805E0,9.519005127E0,9.678391926E0
3.164213167E0,-3.626957703E-1,1.689985657E0,9.499096527E0,9.655072997E0
3.174192167E0,-3.873944092E-1,1.689536591E0,9.476792908E0,9.634013293E0
3.184172167E0,-3.847000122E-1,1.706451416E0,9.435628510E0,9.596408490E0
3.194151167E0,-3.567082214E-1,1.740131378E0,9.414672089E0,9.580780162E0
3.204130167E0,-3.375480652E-1,1.756896515E0,9.407936096E0,9.576527849E0
3.214109167E0,-3.269201660E-1,1.778302002E0,9.393266602E0,9.565703960E0
3.224088167E0,-3.008743286E-1,1.788780212E0,9.381740570E0,9.555486180E0
3.234067167E0,-2.689906311E-1,1.824555817E0,9.380543060E0,9.560122802E0
3.244046167E0,-2.408491516E-1,1.841470642E0,9.399254150E0,9.580970777E0
3.254025167E0,-2.312690735E-1,1.861678619E0,9.405840454E0,9.591098337E0
3.264004167E0,-2.549198914E-1,1.891167297E0,9.413175201E0,9.604653313E0
3.273983167E0,-2.978805542E-1,1.900897064E0,9.431437225E0,9.625702603E0
3.283962167E0,-3.288661194E-1,1.904190216E0,9.471703491E0,9.666812315E0
3.293942167E0,-3.788621521E-1,1.871707764E0,9.529034271E0,9.718504032E0
3.303921167E0,-4.179309082E-1,1.837429047E0,9.612261200E0,9.795222158E0
3.313900167E0,-4.507127380E-1,1.827699280E0,9.684261475E0,9.865523146E0
3.323879167E0,-4.543052673E-1,1.822909241E0,9.736353149E0,9.915944939E0
3.333858167E0,-4.502636719E-1,1.811532898E0,9.756411438E0,9.933375708E0
3.343837167E0,-4.361929321E-1,1.804946594E0,9.772727509E0,9.947577566E0
3.353816167E0,-4.105961609E-1,1.801354065E0,9.799671478E0,9.972313009E0
3.363795167E0,-3.881428528E-1,1.782493286E0,9.801767120E0,9.970084045E0
3.373774167E0,-3.679348755E-1,1.754501495E0,9.824669495E0,9.986880506E0
3.383753167E0,-3.797602844E-1,1.762135620E0,9.830357666E0,9.994261937E0
3.393732167E0,-4.064048767E-1,1.761686554E0,9.803413696E0,9.968732344E0
3.403712167E0,-4.234693909E-1,1.769919434E0,9.776918793E0,9.944852045E0
3.413691167E0,-4.575984192E-1,1.772613831E0,9.709259491E0,9.880347968E0
3.423670167E0,-4.480183411E-1,1.767524414E0,9.658964081E0,9.829570189E0
3.433649167E0,-4.246669006E-1,1.791324921E0,9.602531433E0,9.777412586E0
3.443628167E0,-4.161346436E-1,1.791324921E0,9.585167542E0,9.759992306E0
3.453607167E0,-3.884422302E-1,1.775757294E0,9.560768280E0,9.732034291E0
3.463586167E0,-3.520678711E-1,1.785487061E0,9.529183960E0,9.701405196E0
3.473565167E0,-3.245251465E-1,1.788181458E0,9.489965515E0,9.662419727E0
3.483544167E0,-3.357518005E-1,1.777254181E0,9.461674347E0,9.632997620E0
3.493523167E0,-3.559597778E-1,1.771266632E0,9.428144073E0,9.599687157E0
3.503502167E0,-3.453318787E-1,1.758842468E0,9.423204346E0,9.592161439E0
3.513481167E0,-3.385958862E-1,1.757944336E0,9.428144073E0,9.596609617E0
3.523461167E0,-3.284170532E-1,1.754950562E0,9.429042206E0,9.596590340E0
3.533440167E0,-3.484753418E-1,1.718725891E0,9.434880066E0,9.596479334E0
3.543419167E0,-3.956272888E-1,1.673220520E0,9.425449677E0,9.580985829E0
3.553398167E0,-4.050576782E-1,1.640738068E0,9.439670105E0,9.589758330E0
3.563377167E0,-4.125421143E-1,1.615889740E0,9.474697266E0,9.620352328E0
3.573356167E0,-3.872447205E-1,1.619631958E0,9.502988434E0,9.647795361E0
3.583335167E0,-3.625460815E-1,1.635498962E0,9.517807617E0,9.664106702E0
3.593314167E0,-3.414399719E-1,1.669178925E0,9.506580963E0,9.658044375E0
3.603293167E0,-3.769161987E-1,1.693428497E0,9.483079834E0,9.640465188E0
3.613272167E0,-4.505630493E-1,1.688638458E0,9.472901001E0,9.632775315E0
3.623251167E0,-4.938230896E-1,1.713786163E0,9.466913452E0,9.633450813E0
3.633231167E0,-5.301974487E-1,1.727258148E0,9.458830261E0,9.629849425E0
3.643210167E0,-5.556445312E-1,1.737736359E0,9.481133881E0,9.655069557E0
3.653189167E0,-5.298980713E-1,1.728156281E0,9.496252441E0,9.666753671E0
3.663168167E0,-4.873864746E-1,1.739682312E0,9.484277344E0,9.654820395E0
3.673147167E0,-4.447251892E-1,1.731599121E0,9.478589172E0,9.645717636E0
3.683126167E0,-4.110452271E-1,1.709445190E0,9.505533142E0,9.666763748E0
3.693105167E0,-3.480262756E-1,1.697919159E0,9.532028046E0,9.688323406E0
3.703084167E0,-3.415896606E-1,1.694925385E0,9.569899292E0,9.724835629E0
3.713063167E0,-3.957769775E-1,1.662592621E0,9.592202911E0,9.743264870E0
3.723042167E0,-4.346960449E-1,1.628014526E0,9.636061707E0,9.782283842E0
3.733021167E0,-4.502636719E-1,1.647474060E0,9.684411163E0,9.833856199E0
3.743001167E0,-4.412823486E-1,1.666484528E0,9.710457001E0,9.862295674E0
3.752980167E0,-4.236190796E-1,1.682950287E0,9.735305328E0,9.888778723E0
3.762959167E0,-4.099974060E-1,1.695075073E0,9.749675446E0,9.904420663E0
3.772938167E0,-4.279600525E-1,1.710493011E0,9.751172333E0,9.909303609E0
3.782917167E0,-4.242178345E-1,1.750310211E0,9.727820892E0,9.893131249E0
3.792895958E0,-4.558021545E-1,1.803749084E0,9.739496613E0,9.915596837E0
3.802874958E0,-5.322930908E-1,1.825154572E0,9.696236572E0,9.880866805E0
3.812853958E0,-5.899232483E-1,1.815125427E0,9.710906067E0,9.896685627E0
3.822832958E0,-5.749543762E-1,1.829345856E0,9.714648285E0,9.902094228E0
3.832811958E0,-5.049000549E-1,1.838327179E0,9.731263733E0,9.916242470E0
3.842790958E0,-4.535568237E-1,1.847458191E0,9.732311554E0,9.916486462E0
3.852769958E0,-4.188290405E-1,1.848206635E0,9.712402954E0,9.895557421E0
3.862749958E0,-3.583547974E-1,1.844913483E0,9.675130463E0,9.855976531E0
3.872728958E0,-3.318598938E-1,1.810634766E0,9.645192719E0,9.819280616E0
3.882707958E0,-3.679348755E-1,1.735041962E0,9.633966064E0,9.795868967E0
3.892686958E0,-3.902384949E-1,1.677711182E0,9.647587738E0,9.800150512E0
3.902665958E0,-4.034111023E-1,1.651964722E0,9.699230347E0,9.847172045E0
3.912644958E0,-3.963757324E-1,1.629361725E0,9.705966339E0,9.849757151E0
3.922623958E0,-4.360432434E-1,1.595681763E0,9.694589996E0,9.834704327E0
3.932602958E0,-4.426295471E-1,1.547332306E0,9.662556610E0,9.795670392E0
3.942581958E0,-4.002676392E-1,1.538800049E0,9.616003418E0,9.746570756E0
3.952560958E0,-3.511697388E-1,1.525477753E0,9.537566528E0,9.665173451E0
3.962539958E0,-2.995271301E-1,1.544039154E0,9.489067383E0,9.618532799E0
3.972519958E0,-2.803669739E-1,1.532812500E0,9.462572479E0,9.590015523E0
3.982498958E0,-3.094065857E-1,1.503772888E0,9.438173218E0,9.562226677E0
3.992477958E0,-3.195854187E-1,1.517693939E0,9.428742828E0,9.555455042E0
4.002456958E0,-3.177891541E-1,1.556613007E0,9.406588898E0,9.539808630E0
4.012435958E0,-3.294648743E-1,1.573527832E0,9.399403839E0,9.535896889E0
4.022414958E0,-3.716770935E-1,1.557511139E0,9.373956757E0,9.509734491E0
4.032393958E0,-4.007167053E-1,1.557062073E0,9.383836212E0,9.520577621E0
4.042372958E0,-3.884422302E-1,1.592837677E0,9.385333099E0,9.527460135E0
4.052351958E0,-3.622467041E-1,1.617386627E0,9.438771973E0,9.583192502E0
4.062330958E0,-3.471281433E-1,1.605710907E0,9.485025787E0,9.626241201E0
4.072309958E0,-3.323089600E-1,1.632056122E0,9.528734894E0,9.673201389E0
4.082289958E0,-3.161425781E-1,1.655706940E0,9.582622833E0,9.729746757E0
4.092268958E0,-3.644920349E-1,1.667532349E0,9.604477386E0,9.754973318E0
4.102247958E0,-4.255650330E-1,1.664688263E0,9.630822601E0,9.782895103E0
4.112226958E0,-4.444258118E-1,1.689087524E0,9.679920502E0,9.836228540E0
4.122205958E0,-4.670288086E-1,1.714684296E0,9.694739685E0,9.856278999E0
4.132184958E0,-4.469705200E-1,1.736538849E0,9.703122253E0,9.867417660E0
4.142163958E0,-4.502636719E-1,1.739532623E0,9.698332214E0,9.863384757E0
4.152142958E0,-4.311035156E-1,1.743424530E0,9.704768829E0,9.869544942E0
4.162121958E0,-3.984713745E-1,1.740580444E0,9.716893616E0,9.879596209E0
4.172100958E0,-3.888912964E-1,1.755549316E0,9.739346924E0,9.903942061E0
4.182079958E0,-3.959266663E-1,1.757495270E0,9.758207703E0,9.923112673E0
4.192058958E0,-3.936813354E-1,1.755998383E0,9.741592255E0,9.906418877E0
4.202038958E0,-3.835025024E-1,1.773212585E0,9.717043304E0,9.884952586E0
4.212017958E0,-3.767665100E-1,1.763931885E0,9.698781281E0,9.865078156E0
4.221996958E0,-3.953279114E-1,1.746867371E0,9.652228088E0,9.816992250E0
4.231975958E0,-4.023632813E-1,1.723216553E0,9.616003418E0,9.777468652E0
4.241954958E0,-3.676354980E-1,1.719324646E0,9.601184235E0,9.760838683E0
4.251933958E0,-3.318598938E-1,1.706451416E0,9.572444000E0,9.729018016E0
4.261912958E0,-3.047662354E-1,1.667532349E0,9.568851471E0,9.717842614E0
4.271891958E0,-2.541714478E-1,1.663490753E0,9.563013611E0,9.709945104E0
4.281870958E0,-2.314187622E-1,1.642534332E0,9.547445984E0,9.690469467E0
4.291849958E0,-2.285746765E-1,1.619781647E0,9.550290070E0,9.689374561E0
4.301828958E0,-2.529739380E-1,1.583856354E0,9.556277618E0,9.689945236E0
4.311808958E0,-2.778222656E-1,1.568588104E0,9.558672638E0,9.690504448E0
4.321787958E0,-2.592608643E-1,1.583107910E0,9.564061432E0,9.697665591E0
4.331766958E0,-2.595602417E-1,1.578168182E0,9.556726685E0,9.689634217E0
4.341745958E0,-2.463876343E-1,1.562899933E0,9.546547852E0,9.676773168E0
4.351724958E0,-2.674937439E-1,1.539847870E0,9.531129913E0,9.658422324E0
4.361703958E0,-2.802172852E-1,1.560055847E0,9.520951080E0,9.651984534E0
4.371682958E0,-2.595602417E-1,1.626667328E0,9.548493805E0,9.689538279E0
4.381661958E0,-2.781216431E-1,1.651066589E0,9.551038513E0,9.696685476E0
4.391640958E0,-2.891986084E-1,1.686542816E0,9.524842987E0,9.677328993E0
4.401619958E0,-2.957849121E-1,1.720522156E0,9.495503998E0,9.654650764E0
4.411598958E0,-3.348536682E-1,1.706301727E0,9.475445709E0,9.633673440E0
4.421577958E0,-3.457809448E-1,1.683399353E0,9.460776215E0,9.615595896E0
4.431557958E0,-3.600013733E-1,1.665287018E0,9.498048706E0,9.649648235E0
4.441536958E0,-3.890409851E-1,1.657652893E0,9.549391937E0,9.700002700E0
4.451515958E0,-6.176156616E-1,1.716330872E0,9.651779022E0,9.822630964E0
4.461494958E0,-6.712042236E-1,1.862576752E0,9.691147156E0,9.891311362E0
4.471473958E0,-5.536985779E-1,1.918260956E0,9.684860229E0,9.888519853E0
4.481452958E0,-4.535568237E-1,1.842069397E0,9.660011902E0,9.844529618E0
4.491431958E0,-3.830534363E-1,1.740281067E0,9.617949371E0,9.781628609E0
4.501410958E0,-3.558100891E-1,1.708097992E0,9.611812134E0,9.768885917E0
4.511389958E0,-3.712280273E-1,1.710493011E0,9.614805908E0,9.772824016E0
4.521368958E0,-3.838018799E-1,1.745520172E0,9.642198944E0,9.806433859E0
4.531347958E0,-3.495231628E-1,1.734443207E0,9.646839294E0,9.807750407E0
4.541327958E0,-3.366499329E-1,1.713486786E0,9.598639526E0,9.756190389E0
4.551306958E0,-3.438349915E-1,1.671424255E0,9.509574738E0,9.661464342E0
4.561285958E0,-3.712280273E-1,1.636397095E0,9.453890533E0,9.601648396E0
4.571264958E0,-3.908372498E-1,1.621577911E0,9.480235748E0,9.625857807E0
4.581243958E0,-3.890409851E-1,1.582958221E0,9.551936646E0,9.690025970E0
4.591222958E0,-4.005670166E-1,1.542691956E0,9.644144897E0,9.774962057E0
4.601201958E0,-3.751199341E-1,1.542691956E0,9.704918518E0,9.833923778E0
4.611180958E0,-3.701802063E-1,1.570983124E0,9.725874939E0,9.858887599E0
4.621159958E0,-3.935316467E-1,1.643731842E0,9.710606689E0,9.856602041E0
4.631138958E0,-4.099974060E-1,1.671274567E0,9.708810425E0,9.860134706E0
4.641117958E0,-4.237687683E-1,1.672472076E0,9.682914276E0,9.835424327E0
4.651096958E0,-4.321513367E-1,1.689686279E0,9.669591980E0,9.825619754E0
4.661076958E0,-4.572990417E-1,1.729653168E0,9.663903809E0,9.828115756E0
4.671055958E0,-4.423301697E-1,1.775607605E0,9.631121979E0,9.803415166E0
4.681034958E0,-4.469705200E-1,1.797312469E0,9.574389954E0,9.751874576E0
4.691013958E0,-4.513114929E-1,1.786235504E0,9.526190186E0,9.702711930E0
4.700992958E0,-4.430786133E-1,1.746268616E0,9.518855438E0,9.687847108E0
4.710971958E0,-4.676275635E-1,1.722917175E0,9.556427307E0,9.721749946E0
4.720950958E0,-4.836442566E-1,1.701062622E0,9.598340149E0,9.759900585E0
4.730929958E0,-4.309538269E-1,1.685345306E0,9.662406921E0,9.817750125E0
4.740908958E0,-3.918850708E-1,1.724114685E0,9.659712524E0,9.820193043E0
4.750887958E0,-3.829037476E-1,1.739981689E0,9.589957581E0,9.754047260E0
4.760866958E0,-4.093986511E-1,1.734293518E0,9.524244232E0,9.689510279E0
4.770845958E0,-3.852987671E-1,1.724713440E0,9.477990417E0,9.641337767E0
4.780825958E0,-3.402424622E-1,1.719923401E0,9.428593140E0,9.590217413E0
4.790808542E0,-3.213816833E-1,1.732048187E0,9.455836487E0,9.618530073E0
4.800787542E0,-3.303630066E-1,1.760189667E0,9.486372986E0,9.653946333E0
4.810766542E0,-3.412902832E-1,1.759590912E0,9.492659912E0,9.660394994E0
4.820745542E0,-3.396437073E-1,1.736239471E0,9.500892792E0,9.664204530E0
4.830724542E0,-3.158432007E-1,1.733844452E0,9.507778473E0,9.669737587E0
4.840703542E0,-2.993774414E-1,1.741029510E0,9.515262909E0,9.677863340E0
4.850682542E0,-2.999761963E-1,1.736389160E0,9.534872131E0,9.696330213E0
4.860661542E0,-3.308120728E-1,1.699565735E0,9.560169525E0,9.715698722E0
4.870640542E0,-3.529660034E-1,1.663790131E0,9.596244507E0,9.745803776E0
4.880619542E0,-3.441343689E-1,1.645079041E0,9.658215637E0,9.803358751E0
4.890598542E0,-3.061134338E-1,1.673370209E0,9.653575287E0,9.802315497E0
4.900578542E0,-2.859054565E-1,1.698368225E0,9.632768555E0,9.785521273E0
4.910557542E0,-2.932402039E-1,1.661694489E0,9.633067932E0,9.779734975E0
4.920536542E0,-3.221301270E-1,1.679357758E0,9.629325714E0,9.779975665E0
4.930515542E0,-3.447331238E-1,1.719474335E0,9.613608398E0,9.772251499E0
4.940494542E0,-3.713777161E-1,1.745669861E0,9.586963806E0,9.751674712E0
4.950473542E0,-3.873944092E-1,1.750759277E0,9.559121704E0,9.725843934E0
4.960452542E0,-3.450325012E-1,1.767674103E0,9.578431549E0,9.746284938E0
4.970431542E0,-3.408412170E-1,1.738484802E0,9.569450226E0,9.732054242E0
4.980410542E0,-3.496728516E-1,1.741029510E0,9.563612366E0,9.727082622E0
4.990389542E0,-3.478765869E-1,1.767075348E0,9.570198669E0,9.738186483E0
5.000368542E0,-3.430865479E-1,1.779499512E0,9.571246490E0,9.741308242E0
5.010348542E0,-3.582051086E-1,1.786534882E0,9.530980225E0,9.703587060E0
5.020327542E0,-3.376977539E-1,1.788331146E0,9.502988434E0,9.675688980E0
5.030306542E0,-3.242257690E-1,1.802401886E0,9.461674347E0,9.637274322E0
5.040285542E0,-3.700305176E-1,1.782642975E0,9.451645203E0,9.625400542E0
5.050264542E0,-4.426295471E-1,1.760638733E0,9.478289795E0,9.650582734E0
5.060243542E0,-4.583468628E-1,1.790726166E0,9.501940613E0,9.680064951E0
5.070222542E0,-4.219725037E-1,1.779649200E0,9.538764038E0,9.712529611E0
5.080201542E0,-3.626957703E-1,1.789229279E0,9.546847229E0,9.719834445E0
5.090180542E0,-3.469784546E-1,1.793270874E0,9.552834778E0,9.725886426E0
5.100159542E0,-3.442840576E-1,1.820214844E0,9.572444000E0,9.750046037E0
5.110138542E0,-3.589535522E-1,1.793270874E0,9.590556335E0,9.763372312E0
5.120117542E0,-3.576063538E-1,1.785936127E0,9.649982758E0,9.820367477E0
5.130096542E0,-3.866459656E-1,1.782493286E0,9.693691864E0,9.863794370E0
5.140076542E0,-4.492158508E-1,1.730850677E0,9.740993500E0,9.903766622E0
5.150055542E0,-4.803511047E-1,1.683549042E0,9.797725525E0,9.952914147E0
5.160034542E0,-4.739144897E-1,1.696422272E0,9.818831635E0,9.975565053E0
5.170013542E0,-3.938310242E-1,1.725312195E0,9.789043579E0,9.947722314E0
5.179992542E0,-3.583547974E-1,1.741179199E0,9.731263733E0,9.892300895E0
5.189971542E0,-3.338058472E-1,1.716929626E0,9.675130463E0,9.831959273E0
5.199950542E0,-3.435356140E-1,1.718725891E0,9.614656219E0,9.773108493E0
5.209929542E0,-3.448828125E-1,1.726659393E0,9.565109253E0,9.725821911E0
5.219908542E0,-3.112028503E-1,1.717827759E0,9.564510498E0,9.722532617E0
5.229887542E0,-3.034190369E-1,1.705702972E0,9.548942871E0,9.704833625E0
5.239866542E0,-2.905458069E-1,1.740430756E0,9.500294037E0,9.662768903E0
5.249846542E0,-2.897973633E-1,1.764231262E0,9.452243958E0,9.619844608E0
5.259825542E0,-2.890489197E-1,1.748364258E0,9.413923645E0,9.579263294E0
5.269804542E0,-3.079096985E-1,1.734293518E0,9.377399597E0,9.541394321E0
5.279783542E0,-3.543132019E-1,1.734293518E0,9.348809052E0,9.514911588E0
5.289762542E0,-3.745211792E-1,1.752256165E0,9.372908936E0,9.542645843E0
5.299741542E0,-3.686833191E-1,1.738035736E0,9.405241699E0,9.571586443E0
5.309720542E0,-3.568579102E-1,1.749561768E0,9.449399872E0,9.616624766E0
5.319699542E0,-3.010240173E-1,1.779798889E0,9.488169250E0,9.658346405E0
5.329678542E0,-2.871029663E-1,1.817670135E0,9.534722443E0,9.710678910E0
5.339657542E0,-3.038681030E-1,1.816622314E0,9.560917969E0,9.736714274E0
5.349636542E0,-3.013233948E-1,1.829645233E0,9.571994934E0,9.749947922E0
5.359615542E0,-3.071612549E-1,1.833537140E0,9.597741394E0,9.776136576E0
5.369595542E0,-3.079096985E-1,1.796863403E0,9.623787231E0,9.794937833E0
5.379574542E0,-3.318598938E-1,1.785936127E0,9.648186493E0,9.817698378E0
5.389553542E0,-3.150947571E-1,1.755549316E0,9.638456726E0,9.802096009E0
5.399532542E0,-3.107537842E-1,1.755998383E0,9.630074158E0,9.793795307E0
5.409511542E0,-3.076103210E-1,1.766626282E0,9.605525208E0,9.771474149E0
5.419490542E0,-3.197351074E-1,1.752256165E0,9.585017853E0,9.749112752E0
5.429469542E0,-3.417393494E-1,1.727707214E0,9.560768280E0,9.721627853E0
5.439448542E0,-3.330574036E-1,1.732796631E0,9.557624817E0,9.719141091E0
5.449427542E0,-3.261717224E-1,1.746268616E0,9.570498047E0,9.733975289E0
5.459406542E0,-3.194357300E-1,1.787882080E0,9.583820343E0,9.754392543E0
5.469385542E0,-3.456312561E-1,1.795965271E0,9.613907776E0,9.786325916E0
5.479365542E0,-3.616479492E-1,1.765279083E0,9.652976532E0,9.819722777E0
5.489344542E0,-3.582051086E-1,1.757345581E0,9.684860229E0,9.849522428E0
5.499323542E0,-3.513194275E-1,1.770218811E0,9.675729218E0,9.842603104E0
5.509302542E0,-3.793112183E-1,1.783391418E0,9.667945404E0,9.838370306E0
5.519281542E0,-3.953279114E-1,1.791324921E0,9.638456726E0,9.811471714E0
5.529260542E0,-3.836521912E-1,1.804497528E0,9.621841278E0,9.797103139E0
5.539239542E0,-4.017645264E-1,1.798360291E0,9.609117737E0,9.784204523E0
5.549218542E0,-4.484674072E-1,1.789828033E0,9.586963806E0,9.762913624E0
5.559197542E0,-4.638853455E-1,1.762584686E0,9.595346375E0,9.766911817E0
5.569176542E0,-4.688250732E-1,1.785786438E0,9.592502289E0,9.768568488E0
5.579155542E0,-4.694238281E-1,1.792522430E0,9.547445984E0,9.725596136E0
5.589134542E0,-4.408332825E-1,1.788031769E0,9.496701508E0,9.673610035E0
5.599114542E0,-3.891906738E-1,1.790127411E0,9.453142090E0,9.629014534E0
5.609093542E0,-3.835025024E-1,1.792372742E0,9.431437225E0,9.607896874E0
5.619072542E0,-3.664379883E-1,1.792672119E0,9.409133606E0,9.585392289E0
5.629051542E0,-3.339555359E-1,1.818717957E0,9.404642944E0,9.584705015E0
5.639030542E0,-3.665876770E-1,1.831890564E0,9.435029755E0,9.618211686E0
5.649009542E0,-3.716770935E-1,1.777254181E0,9.443562012E0,9.616529507E0
5.658988542E0,-3.462300110E-1,1.763632507E0,9.478439484E0,9.647335896E0
5.668967542E0,-3.529660034E-1,1.779649200E0,9.500144348E0,9.671839479E0
5.678946542E0,-3.641926575E-1,1.767674103E0,9.511221313E0,9.680942046E0
5.688925542E0,-3.044668579E-1,1.762285309E0,9.533075867E0,9.699375498E0
5.698904542E0,-2.739303589E-1,1.788780212E0,9.562265167E0,9.731992993E0
5.708883542E0,-2.936892700E-1,1.787433014E0,9.574090576E0,9.743940708E0
5.718863542E0,-3.706292725E-1,1.760189667E0,9.598639526E0,9.765731641E0
5.728842542E0,-4.183799744E-1,1.719474335E0,9.655521240E0,9.816349842E0
5.738821542E0,-4.001179504E-1,1.740281067E0,9.699978790E0,9.862974252E0
5.748800542E0,-3.173400879E-1,1.773811340E0,9.708211670E0,9.874030850E0
5.758779542E0,-2.734812927E-1,1.772015076E0,9.679621124E0,9.844282328E0
5.768758542E0,-2.432441711E-1,1.807191925E0,9.611512756E0,9.782959054E0
5.778737542E0,-2.639012146E-1,1.828747101E0,9.559720459E0,9.736642905E0
5.788713458E0,-2.980302429E-1,1.841770020E0,9.512568512E0,9.693807226E0
5.798692458E0,-3.650907898E-1,1.856888580E0,9.507628784E0,9.694139033E0
5.808671458E0,-3.764671326E-1,1.837429047E0,9.524992676E0,9.707901858E0
5.818650458E0,-3.700305176E-1,1.800006866E0,9.581724701E0,9.756351549E0
5.828629458E0,-3.893403625E-1,1.765877838E0,9.640402679E0,9.808530689E0
5.838609458E0,-3.972738647E-1,1.744172974E0,9.652078400E0,9.816444536E0
5.848588458E0,-3.800596619E-1,1.751208344E0,9.672136688E0,9.836737474E0
5.858567458E0,-3.555107117E-1,1.739532623E0,9.659862213E0,9.821674989E0
5.868546458E0,-3.228785706E-1,1.720372467E0,9.642947388E0,9.800528880E0
5.878525458E0,-3.309617615E-1,1.748963013E0,9.638157349E0,9.801147095E0
5.888504458E0,-3.661386108E-1,1.767374725E0,9.614955597E0,9.782895381E0
5.898483458E0,-3.770658875E-1,1.787582703E0,9.572294312E0,9.745073062E0
5.908462458E0,-3.727249146E-1,1.803000641E0,9.527687073E0,9.703945390E0
5.918441458E0,-3.421884155E-1,1.803449707E0,9.490713959E0,9.666601016E0
5.928420458E0,-3.412902832E-1,1.788780212E0,9.476194153E0,9.649583894E0
5.938399458E0,-3.700305176E-1,1.785936127E0,9.490115204E0,9.663786888E0
5.948378458E0,-3.700305176E-1,1.774859161E0,9.507628784E0,9.678948947E0
5.958358458E0,-3.282673645E-1,1.804198151E0,9.516310730E0,9.691391043E0
5.968337458E0,-3.195854187E-1,1.817819824E0,9.528435516E0,9.705549296E0
5.978316458E0,-2.974314880E-1,1.803300018E0,9.494156799E0,9.668472981E0
5.988295458E0,-2.838098145E-1,1.780397644E0,9.478289795E0,9.648229953E0
5.998274458E0,-2.827619934E-1,1.751507721E0,9.473649445E0,9.638348792E0
6.008253458E0,-2.999761963E-1,1.738933868E0,9.495204620E0,9.657783778E0
6.018232458E0,-2.906954956E-1,1.747017059E0,9.527088318E0,9.690303622E0
6.028211458E0,-2.836601257E-1,1.740580444E0,9.590406647E0,9.751204182E0
6.038190458E0,-2.743794250E-1,1.745819550E0,9.631571045E0,9.792360837E0
6.048169458E0,-2.576142883E-1,1.727707214E0,9.695787506E0,9.851884728E0
6.058148458E0,-2.622546387E-1,1.741179199E0,9.695338440E0,9.853936775E0
6.068128458E0,-3.230282593E-1,1.739233246E0,9.656868439E0,9.817555072E0
6.078107458E0,-3.350033569E-1,1.747615814E0,9.643695831E0,9.806490584E0
6.088086458E0,-3.387455750E-1,1.770967255E0,9.618847504E0,9.786383442E0
6.098065458E0,-3.366499329E-1,1.796114960E0,9.583520966E0,9.756189637E0
6.108044458E0,-3.679348755E-1,1.824705505E0,9.567953339E0,9.747341040E0
6.118023458E0,-3.703298950E-1,1.818418579E0,9.547445984E0,9.726125394E0
6.128002458E0,-3.468287659E-1,1.790875854E0,9.558223572E0,9.730732982E0
6.137981458E0,-3.086581421E-1,1.769470367E0,9.559271393E0,9.726559761E0
6.147960458E0,-3.126997375E-1,1.774260406E0,9.591454468E0,9.759189512E0
6.157939458E0,-3.233276367E-1,1.747017059E0,9.603429565E0,9.766394871E0
6.167918458E0,-3.144960022E-1,1.723366241E0,9.623637543E0,9.781784014E0
6.177897458E0,-3.363505554E-1,1.727407837E0,9.634864197E0,9.794267590E0
6.187877458E0,-3.468287659E-1,1.707948303E0,9.637408905E0,9.793723909E0
6.197856458E0,-3.414399719E-1,1.729054413E0,9.609716492E0,9.769998028E0
6.207835458E0,-3.224295044E-1,1.747316437E0,9.601932678E0,9.764946834E0
6.217814458E0,-3.088078308E-1,1.752106476E0,9.577084351E0,9.740933427E0
6.227793458E0,-3.010240173E-1,1.774410095E0,9.558822327E0,9.726779062E0
6.237772458E0,-3.091072083E-1,1.784289551E0,9.526938629E0,9.697514945E0
6.247751458E0,-3.179388428E-1,1.777104492E0,9.516161041E0,9.685892135E0
6.257730458E0,-3.143463135E-1,1.770069122E0,9.514963531E0,9.683309832E0
6.267709458E0,-3.159928894E-1,1.776655426E0,9.553882599E0,9.722809713E0
6.277688458E0,-3.020718384E-1,1.755848694E0,9.595496063E0,9.759497770E0
6.287667458E0,-3.353027344E-1,1.737287292E0,9.623338165E0,9.784642687E0
6.297646458E0,-3.546125793E-1,1.760638733E0,9.613309021E0,9.779637476E0
6.307626458E0,-3.620970154E-1,1.778302002E0,9.598340149E0,9.768398327E0
6.317605458E0,-3.703298950E-1,1.764979706E0,9.589508514E0,9.757610934E0
6.327584458E0,-3.451821899E-1,1.757345581E0,9.588311005E0,9.754133593E0
6.337563458E0,-3.023712158E-1,1.764530640E0,9.572743378E0,9.738706922E0
6.347542458E0,-3.198847961E-1,1.758992157E0,9.608668671E0,9.773581396E0
6.357521458E0,-3.194357300E-1,1.745370483E0,9.587412872E0,9.750222710E0
6.367500458E0,-3.442840576E-1,1.755100250E0,9.593250732E0,9.758553582E0
6.377479458E0,-3.347039795E-1,1.756896515E0,9.581724701E0,9.747212954E0
6.387458458E0,-3.071612549E-1,1.750310211E0,9.570198669E0,9.733788391E0
6.397437458E0,-3.040177917E-1,1.742227020E0,9.571096802E0,9.733122613E0
6.407416458E0,-2.851570129E-1,1.747166748E0,9.553283844E0,9.715921900E0
6.417395458E0,-2.627037048E-1,1.757794647E0,9.541308746E0,9.705432904E0
6.427375458E0,-2.477348328E-1,1.755100250E0,9.529483337E0,9.692925364E0
6.437354458E0,-2.665956116E-1,1.756597137E0,9.527836761E0,9.692078212E0
6.447333458E0,-3.403921509E-1,1.762135620E0,9.513316956E0,9.681125361E0
6.457312458E0,-4.020639038E-1,1.753603363E0,9.527836761E0,9.696208202E0
6.467291458E0,-3.781137085E-1,1.764081573E0,9.558223572E0,9.727003219E0
6.477270458E0,-2.906954956E-1,1.782942352E0,9.543554077E0,9.713022790E0
6.487249458E0,-2.591111755E-1,1.780846710E0,9.522897034E0,9.691445791E0
6.497228458E0,-2.475851440E-1,1.791773987E0,9.536967773E0,9.706982370E0
6.507207458E0,-2.371069336E-1,1.781445465E0,9.555080109E0,9.722619170E0
6.517186458E0,-2.715353394E-1,1.762285309E0,9.590256958E0,9.754609652E0
6.527165458E0,-3.174897766E-1,1.783690796E0,9.625433807E0,9.794453971E0
6.537144458E0,-3.420387268E-1,1.769470367E0,9.651928711E0,9.818744508E0
6.547124458E0,-3.908372498E-1,1.747615814E0,9.656269684E0,9.820919458E0
6.557103458E0,-3.589535522E-1,1.751807098E0,9.657317505E0,9.821479377E0
6.567082458E0,-3.203338623E-1,1.779349823E0,9.621691589E0,9.790079091E0
6.577061458E0,-2.830613708E-1,1.801054688E0,9.595346375E0,9.767015602E0
6.587040458E0,-2.667453003E-1,1.818568268E0,9.587712250E0,9.762303508E0
6.597019458E0,-2.655477905E-1,1.825453949E0,9.609417114E0,9.784870721E0
6.606998458E0,-2.779719543E-1,1.817819824E0,9.631720734E0,9.805701485E0
6.616977458E0,-3.203338623E-1,1.791474609E0,9.673633575E0,9.843331835E0
6.626956458E0,-3.344046021E-1,1.787882080E0,9.671837311E0,9.841381292E0
6.636935458E0,-3.438349915E-1,1.808090057E0,9.657916260E0,9.831722059E0
6.646914458E0,-3.373983765E-1,1.826501770E0,9.605225830E0,9.783164602E0
6.656893458E0,-3.264710999E-1,1.824555817E0,9.571994934E0,9.749803810E0
6.666873458E0,-3.336561584E-1,1.786385193E0,9.558822327E0,9.730035085E0
6.676852458E0,-3.451821899E-1,1.779499512E0,9.539362793E0,9.710057248E0
6.686831458E0,-3.626957703E-1,1.828148346E0,9.571246490E0,9.751022202E0
6.696810458E0,-3.893403625E-1,1.835183716E0,9.592951355E0,9.774671395E0
6.706789458E0,-3.588038635E-1,1.848206635E0,9.592502289E0,9.775515748E0
6.716768458E0,-3.023712158E-1,1.854792938E0,9.618847504E0,9.800709795E0
6.726747458E0,-2.647993469E-1,1.829196167E0,9.667646027E0,9.842736256E0
6.736726458E0,-2.941383362E-1,1.803300018E0,9.670340424E0,9.841437508E0
6.746705458E0,-3.299139404E-1,1.789079590E0,9.697583771E0,9.866751237E0
6.756684458E0,-3.362008667E-1,1.781445465E0,9.739795990E0,9.907078525E0
6.766663458E0,-3.550616455E-1,1.797611847E0,9.762997742E0,9.933458714E0
6.776642458E0,-3.724255371E-1,1.816622314E0,9.752070465E0,9.926817001E0
6.786621208E0,-4.267625427E-1,1.831142120E0,9.734706573E0,9.914621516E0
6.796601208E0,-4.700225830E-1,1.843715973E0,9.689500580E0,9.874544612E0
6.806580208E0,-4.831951904E-1,1.842368774E0,9.605674896E0,9.792690667E0
6.816559208E0,-4.575984192E-1,1.866618347E0,9.508377228E0,9.700664816E0
6.826538208E0,-4.240681458E-1,1.873054962E0,9.451495514E0,9.644632504E0
6.836517208E0,-4.052073669E-1,1.877845001E0,9.387728119E0,9.582271865E0
6.846496208E0,-3.811074829E-1,1.917213135E0,9.325607300E0,9.528268501E0
6.856475208E0,-4.111949158E-1,1.893712006E0,9.310788116E0,9.510310288E0
6.866454208E0,-4.110452271E-1,1.859283600E0,9.311985626E0,9.504681477E0
6.876433208E0,-3.667373657E-1,1.841470642E0,9.355245667E0,9.541809676E0
6.886412208E0,-3.195854187E-1,1.845063171E0,9.428742828E0,9.612886365E0
6.896391208E0,-3.212319946E-1,1.871707764E0,9.468260651E0,9.656833834E0
6.906371208E0,-3.529660034E-1,1.854792938E0,9.487420807E0,9.673468634E0
6.916350208E0,-3.685336304E-1,1.851200409E0,9.496851196E0,9.682610321E0
6.926329208E0,-3.438349915E-1,1.857637024E0,9.495503998E0,9.681613191E0
6.936308208E0,-3.077600098E-1,1.872156830E0,9.463320923E0,9.651638737E0
6.946287208E0,-3.198847961E-1,1.887125702E0,9.486372986E0,9.677543186E0
6.956266208E0,-3.106040955E-1,1.874402161E0,9.471553802E0,9.660237564E0
6.966245208E0,-2.896476746E-1,1.883982239E0,9.481882324E0,9.671575738E0
6.976224208E0,-2.947370911E-1,1.880240021E0,9.491761780E0,9.680687691E0
6.986203208E0,-3.275189209E-1,1.856888580E0,9.537716217E0,9.722311170E0
6.996182208E0,-3.565585327E-1,1.833237762E0,9.565408630E0,9.746021596E0
7.006161208E0,-3.869453430E-1,1.828896790E0,9.580078125E0,9.760762626E0
7.016140208E0,-3.824546814E-1,1.830243988E0,9.575587463E0,9.756430695E0
7.026120208E0,-3.818559265E-1,1.850901031E0,9.542356567E0,9.727703605E0
7.036099208E0,-3.685336304E-1,1.870659943E0,9.513915710E0,9.703080841E0
7.046078208E0,-3.263214111E-1,1.908231812E0,9.458680573E0,9.654764238E0
7.056057208E0,-3.118016052E-1,1.927990723E0,9.408534851E0,9.609104876E0
7.066036208E0,-3.152444458E-1,1.928140411E0,9.344019012E0,9.546087985E0
7.076015208E0,-3.315605164E-1,1.937421112E0,9.334588623E0,9.539291258E0
7.085994208E0,-3.441343689E-1,1.937421112E0,9.344617767E0,9.549550264E0
7.095973208E0,-3.339555359E-1,1.914818115E0,9.413923645E0,9.612492554E0
7.105952208E0,-3.324586487E-1,1.897005157E0,9.489815826E0,9.683272264E0
7.115931208E0,-3.408412170E-1,1.895059204E0,9.529932404E0,9.722501414E0
7.125910208E0,-3.338058472E-1,1.901795197E0,9.582473145E0,9.775072526E0
7.135889208E0,-3.359014893E-1,1.867666168E0,9.599687347E0,9.785448579E0
7.145868208E0,-3.475772095E-1,1.845961304E0,9.592651978E0,9.774832736E0
7.155848208E0,-3.293151855E-1,1.834435272E0,9.571695557E0,9.751459229E0
7.165827208E0,-3.794609070E-1,1.834435272E0,9.589957581E0,9.771204109E0
7.175806208E0,-3.993695068E-1,1.826651459E0,9.597741394E0,9.778179351E0
7.185785208E0,-3.802093506E-1,1.858235779E0,9.599238281E0,9.784833925E0
7.195764208E0,-2.995271301E-1,1.872156830E0,9.600136414E0,9.785566251E0
7.205743208E0,-2.426454163E-1,1.902843018E0,9.554780731E0,9.745436017E0
7.215722208E0,-2.100132751E-1,1.911075897E0,9.515861664E0,9.708137817E0
7.225701208E0,-2.067201233E-1,1.918859711E0,9.472451935E0,9.667062711E0
7.235680208E0,-2.368075562E-1,1.901795197E0,9.480834503E0,9.672596635E0
7.245659208E0,-2.782713318E-1,1.885030060E0,9.500294037E0,9.689497409E0
7.255638208E0,-3.356021118E-1,1.850002899E0,9.504335632E0,9.688525962E0
7.265618208E0,-3.981719971E-1,1.797013092E0,9.547745361E0,9.723540429E0
7.275597208E0,-4.212240601E-1,1.771865387E0,9.574539642E0,9.746217011E0
7.285576208E0,-4.278103638E-1,1.766027527E0,9.571096802E0,9.742061841E0
7.295555208E0,-4.308041382E-1,1.760039978E0,9.566606140E0,9.736697899E0
7.305534208E0,-4.245172119E-1,1.753603363E0,9.551487579E0,9.720404035E0
7.315513208E0,-3.498225403E-1,1.767374725E0,9.562265167E0,9.730514085E0
7.325492208E0,-2.689906311E-1,1.751807098E0,9.576186218E0,9.738815460E0
7.335471208E0,-2.582130432E-1,1.765428772E0,9.558223572E0,9.723325078E0
7.345450208E0,-2.968327332E-1,1.790726166E0,9.578132172E0,9.748611479E0
7.355429208E0,-3.311114502E-1,1.791773987E0,9.610464935E0,9.781672919E0
7.365408208E0,-3.243754578E-1,1.776655426E0,9.662855988E0,9.830183608E0
7.375387208E0,-3.043171692E-1,1.799408112E0,9.679471436E0,9.850007399E0
7.385366208E0,-3.124003601E-1,1.777852936E0,9.708960114E0,9.875336021E0
7.395346208E0,-3.156935120E-1,1.739083557E0,9.717941437E0,9.877371097E0
7.405325208E0,-3.201841736E-1,1.733994141E0,9.694889374E0,9.853940002E0
7.415304208E0,-3.146456909E-1,1.740580444E0,9.680070190E0,9.840344561E0
7.425283208E0,-2.939886475E-1,1.758992157E0,9.622440033E0,9.786308544E0
7.435262208E0,-2.674937439E-1,1.798809357E0,9.552685089E0,9.724251149E0
7.445241208E0,-2.534230042E-1,1.795965271E0,9.528435516E0,9.699525651E0
7.455220208E0,-2.412982178E-1,1.786684570E0,9.509275360E0,9.678676793E0
7.465199208E0,-2.546205139E-1,1.790426788E0,9.523645477E0,9.693827050E0
7.475178208E0,-2.769241333E-1,1.795067139E0,9.556576996E0,9.727647037E0
7.485157208E0,-3.052153015E-1,1.814227295E0,9.580826569E0,9.755860536E0
7.495136208E0,-3.246748352E-1,1.811083832E0,9.611363068E0,9.785894870E0
7.505115208E0,-3.094065857E-1,1.790576477E0,9.610015869E0,9.780301711E0
7.515095208E0,-3.309617615E-1,1.775757294E0,9.624835052E0,9.792869827E0
7.525074208E0,-3.631448364E-1,1.771865387E0,9.619146881E0,9.787715149E0
7.535053208E0,-3.844006348E-1,1.770368500E0,9.612410889E0,9.781636446E0
7.545032208E0,-3.980223083E-1,1.753753052E0,9.629625092E0,9.796108969E0
7.555011208E0,-3.796105957E-1,1.766177216E0,9.644444275E0,9.812175678E0
7.564990208E0,-3.408412170E-1,1.783391418E0,9.648036804E0,9.817396389E0
7.574969208E0,-3.336561584E-1,1.787133636E0,9.641899567E0,9.811799036E0
7.584948208E0,-2.980302429E-1,1.772613831E0,9.610315247E0,9.776969927E0
7.594927208E0,-3.047662354E-1,1.775906982E0,9.562265167E0,9.730552050E0
7.604906208E0,-2.948867798E-1,1.778302002E0,9.517358551E0,9.686559245E0
7.614885208E0,-2.818638611E-1,1.776954803E0,9.501192169E0,9.670039723E0
7.624864208E0,-2.775228882E-1,1.789678345E0,9.498797150E0,9.669907695E0
7.634844208E0,-2.808160400E-1,1.789229279E0,9.470206604E0,9.641836556E0
7.644823208E0,-3.013233948E-1,1.769170990E0,9.481582947E0,9.649931448E0
7.654802208E0,-3.144960022E-1,1.748813324E0,9.494456177E0,9.659293653E0
7.664781208E0,-3.101550293E-1,1.760638733E0,9.491612091E0,9.658506353E0
7.674760208E0,-3.177891541E-1,1.769170990E0,9.513466644E0,9.681787207E0
7.684739208E0,-3.031196594E-1,1.744322662E0,9.516610107E0,9.679897263E0
7.694718208E0,-2.613565063E-1,1.752405853E0,9.503138123E0,9.666895452E0
7.704697208E0,-2.847079468E-1,1.774859161E0,9.497449951E0,9.666061206E0
7.714676208E0,-3.056643677E-1,1.769170990E0,9.510323181E0,9.678307895E0
7.724655208E0,-2.938389587E-1,1.751507721E0,9.543404388E0,9.707249247E0
7.734634208E0,-3.207829285E-1,1.754052429E0,9.560019836E0,9.724894904E0
7.744613208E0,-3.246748352E-1,1.764231262E0,9.597442017E0,9.763647830E0
7.754593208E0,-3.243754578E-1,1.766476593E0,9.639953613E0,9.805833195E0
7.764572208E0,-3.029699707E-1,1.773212585E0,9.629774780E0,9.796358303E0
7.774551208E0,-2.935395813E-1,1.785037994E0,9.651779022E0,9.819845438E0
7.784530208E0,-2.736309814E-1,1.786235504E0,9.641600189E0,9.809483442E0
7.794509667E0,-2.650987244E-1,1.757495270E0,9.626331940E0,9.789041504E0
7.804488667E0,-2.565664673E-1,1.753453674E0,9.612859955E0,9.774840288E0
7.814467667E0,-2.350112915E-1,1.748214569E0,9.614057465E0,9.774537606E0
7.824446667E0,-2.179467773E-1,1.733844452E0,9.613009644E0,9.770551253E0
7.834425667E0,-1.878593445E-1,1.777703247E0,9.574539642E0,9.739986105E0
7.844404667E0,-1.989363098E-1,1.776954803E0,9.547595673E0,9.713584671E0
7.854383667E0,-2.668949890E-1,1.736089783E0,9.516161041E0,9.676908682E0
7.864362667E0,-3.680845642E-1,1.697919159E0,9.521849213E0,9.679050994E0
7.874342667E0,-3.165916443E-1,1.739532623E0,9.539362793E0,9.701837275E0
7.884321667E0,-2.442919922E-1,1.772015076E0,9.554780731E0,9.720779332E0
7.894300667E0,-2.324665833E-1,1.778451691E0,9.520951080E0,9.688417859E0
7.904279667E0,-1.640588379E-1,1.804946594E0,9.522447968E0,9.693387581E0
7.914258667E0,-1.453477478E-1,1.820364532E0,9.502988434E0,9.676861174E0
7.924237667E0,-2.032772827E-1,1.808688812E0,9.509574738E0,9.682184080E0
7.934216667E0,-2.589614868E-1,1.780397644E0,9.517059174E0,9.685622961E0
7.944195667E0,-2.917433167E-1,1.760489044E0,9.570048981E0,9.735002482E0
7.954174667E0,-3.314108276E-1,1.740879822E0,9.632918243E0,9.794570413E0
7.964153667E0,-3.567082214E-1,1.702858887E0,9.678872681E0,9.833999467E0
7.974132667E0,-3.517684937E-1,1.697170715E0,9.712702332E0,9.866139878E0
7.984111667E0,-3.418890381E-1,1.702409821E0,9.698032837E0,9.852254981E0
7.994090667E0,-3.372486877E-1,1.717079315E0,9.641450500E0,9.798962486E0
8.004070667E0,-2.823129272E-1,1.702409821E0,9.626781006E0,9.780225576E0
8.014049667E0,-2.842588806E-1,1.699715424E0,9.582772522E0,9.736496538E0
8.024028667E0,-3.125500488E-1,1.706900482E0,9.602531433E0,9.758063676E0
8.034007667E0,-3.342549133E-1,1.714085541E0,9.629176025E0,9.786258045E0
8.043986667E0,-3.713777161E-1,1.734143829E0,9.634864197E0,9.796723142E0
8.053965667E0,-3.550616455E-1,1.755100250E0,9.646988983E0,9.811770590E0
8.063944667E0,-3.135978699E-1,1.770667877E0,9.589059448E0,9.756211840E0
8.073923667E0,-2.999761963E-1,1.788630524E0,9.537267151E0,9.708174369E0
8.083902667E0,-3.118016052E-1,1.755399628E0,9.500593414E0,9.666432812E0
8.093881667E0,-3.143463135E-1,1.728156281E0,9.510173492E0,9.671025674E0
8.103860667E0,-2.722837830E-1,1.748663635E0,9.521699524E0,9.684767668E0
8.113839667E0,-2.606080627E-1,1.776505737E0,9.551337891E0,9.718639035E0
8.123819667E0,-2.406994629E-1,1.756447449E0,9.559421082E0,9.722426409E0
8.133798667E0,-2.028282166E-1,1.770667877E0,9.544452209E0,9.709426965E0
8.143777667E0,-2.064207458E-1,1.762434998E0,9.527836761E0,9.691669619E0
8.153756667E0,-2.365081787E-1,1.728156281E0,9.518556061E0,9.677053773E0
8.163735667E0,-2.182461548E-1,1.695524139E0,9.524244232E0,9.676448816E0
8.173714667E0,-2.302212524E-1,1.676513672E0,9.577084351E0,9.725443156E0
8.183693667E0,-2.748284912E-1,1.671573944E0,9.622739410E0,9.770711536E0
8.193672667E0,-3.073109436E-1,1.697320404E0,9.656868439E0,9.809711750E0
8.203651667E0,-3.115022278E-1,1.704655151E0,9.673034821E0,9.827028313E0
8.213630667E0,-3.269201660E-1,1.735491028E0,9.645791473E0,9.806125588E0
8.223609667E0,-3.189866638E-1,1.746717682E0,9.609117737E0,9.771791997E0
8.233588667E0,-3.204835510E-1,1.748513947E0,9.584269409E0,9.747729522E0
8.243568667E0,-3.221301270E-1,1.750160522E0,9.574090576E0,9.738071679E0
8.253547667E0,-3.079096985E-1,1.750459900E0,9.585017853E0,9.748409382E0
8.263526667E0,-2.903961182E-1,1.755549316E0,9.609417114E0,9.772777527E0
8.273505667E0,-3.101550293E-1,1.728455658E0,9.626781006E0,9.785635781E0
8.283484667E0,-3.323089600E-1,1.700763245E0,9.639055481E0,9.793590528E0
8.293463667E0,-3.092568970E-1,1.710043945E0,9.653575287E0,9.808741303E0
8.303442667E0,-2.755769348E-1,1.738484802E0,9.621541901E0,9.781223880E0
8.313421667E0,-3.059637451E-1,1.702260132E0,9.579778748E0,9.734652753E0
8.323400667E0,-3.180885315E-1,1.683249664E0,9.571994934E0,9.724073054E0
8.333379667E0,-2.688409424E-1,1.714085541E0,9.545949097E0,9.702345533E0
8.343358667E0,-2.824626160E-1,1.726958771E0,9.532028046E0,9.691322427E0
8.353337667E0,-2.820135498E-1,1.721569977E0,9.514963531E0,9.673565311E0
8.363317667E0,-2.757266235E-1,1.743574219E0,9.529034271E0,9.691159392E0
8.373296667E0,-2.754272461E-1,1.731449432E0,9.553882599E0,9.713415981E0
8.383275667E0,-2.658471680E-1,1.737586670E0,9.535919952E0,9.696579371E0
8.393254667E0,-2.387535095E-1,1.755100250E0,9.542805634E0,9.705798241E0
8.403233667E0,-2.318678284E-1,1.734443207E0,9.529633026E0,9.688960808E0
8.413212667E0,-2.420466614E-1,1.740131378E0,9.527387695E0,9.688021475E0
8.423191667E0,-2.694396973E-1,1.714384918E0,9.554780731E0,9.711104377E0
8.433170667E0,-2.875520325E-1,1.722917175E0,9.564660187E0,9.722852167E0
8.443149667E0,-2.797682190E-1,1.715432739E0,9.607471161E0,9.763425723E0
8.453128667E0,-2.839595032E-1,1.720971222E0,9.608968048E0,9.765994158E0
8.463107667E0,-3.052153015E-1,1.720821533E0,9.596992950E0,9.754827360E0
8.473086667E0,-3.121009827E-1,1.755249939E0,9.607321472E0,9.771332317E0
8.483065667E0,-3.156935120E-1,1.763482819E0,9.592951355E0,9.758803705E0
8.493045667E0,-3.083587646E-1,1.763782196E0,9.589059448E0,9.754797479E0
8.503024667E0,-2.844085693E-1,1.747615814E0,9.573491821E0,9.735851012E0
8.513003667E0,-2.924917603E-1,1.744921417E0,9.567354584E0,9.729572237E0
8.522982667E0,-3.288661194E-1,1.724414063E0,9.560319214E0,9.720157419E0
8.532961667E0,-3.342549133E-1,1.708547058E0,9.567504272E0,9.724607828E0
8.542940667E0,-3.305126953E-1,1.715283051E0,9.616452484E0,9.773821820E0
8.552919667E0,-2.770738220E-1,1.701212311E0,9.664053497E0,9.816558624E0
8.562898667E0,-2.176473999E-1,1.674867096E0,9.682165833E0,9.828371451E0
8.572877667E0,-1.860630798E-1,1.689985657E0,9.685159607E0,9.833259256E0
8.582856667E0,-1.862127686E-1,1.694027252E0,9.654623108E0,9.803884479E0
8.592835667E0,-2.188449097E-1,1.705553284E0,9.642348633E0,9.794472536E0
8.602814667E0,-2.324665833E-1,1.749561768E0,9.632618866E0,9.792974691E0
8.612794667E0,-2.538720703E-1,1.758692780E0,9.628427582E0,9.791019815E0
8.622773667E0,-3.565585327E-1,1.752106476E0,9.619895325E0,9.784651100E0
8.632752667E0,-3.595523071E-1,1.720522156E0,9.573940887E0,9.733951842E0
8.642731667E0,-3.359014893E-1,1.729653168E0,9.570198669E0,9.731044778E0
8.652710667E0,-3.050656128E-1,1.753453674E0,9.525441742E0,9.690289221E0
8.662689667E0,-2.984793091E-1,1.781295776E0,9.494605865E0,9.664866532E0
8.672668667E0,-2.414479065E-1,1.780996399E0,9.464368744E0,9.633510315E0
8.682647667E0,-2.324665833E-1,1.761087799E0,9.433233490E0,9.599029379E0
8.692626667E0,-2.332150269E-1,1.740131378E0,9.470805359E0,9.632164897E0
8.702605667E0,-2.468367004E-1,1.723066864E0,9.490414581E0,9.648723061E0
8.712584667E0,-2.779719543E-1,1.705702972E0,9.553583221E0,9.708637567E0
8.722563667E0,-3.046165466E-1,1.689536591E0,9.643396454E0,9.795020179E0
8.732543667E0,-2.888992310E-1,1.699416046E0,9.686656494E0,9.838840973E0
8.742522667E0,-2.716850281E-1,1.694027252E0,9.703122253E0,9.853634992E0
8.752501667E0,-2.736309814E-1,1.697619781E0,9.656718750E0,9.808618856E0
8.762480667E0,-2.838098145E-1,1.732646942E0,9.607171783E0,9.766287069E0
8.772459667E0,-2.710862732E-1,1.786834259E0,9.584568787E0,9.753472369E0
8.782438667E0,-2.775228882E-1,1.790426788E0,9.551337891E0,9.721661511E0
8.792417292E0,-2.787203979E-1,1.807042236E0,9.518106995E0,9.692133277E0
8.802396292E0,-2.420466614E-1,1.839674377E0,9.480834503E0,9.660704492E0
8.812375292E0,-2.395019531E-1,1.833387451E0,9.464967499E0,9.643872691E0
8.822354292E0,-2.812651062E-1,1.811532898E0,9.479337616E0,9.654978153E0
8.832333292E0,-2.763253784E-1,1.792223053E0,9.535620575E0,9.706517343E0
8.842312292E0,-2.950364685E-1,1.788181458E0,9.591753845E0,9.761474339E0
8.852291292E0,-3.101550293E-1,1.788630524E0,9.641749878E0,9.811153653E0
8.862271292E0,-2.838098145E-1,1.763183441E0,9.647887115E0,9.811783204E0
8.872250292E0,-3.013233948E-1,1.745969238E0,9.647138672E0,9.808490655E0
8.882229292E0,-2.869532776E-1,1.728455658E0,9.621242523E0,9.779478965E0
8.892208292E0,-2.652484131E-1,1.731449432E0,9.637857971E0,9.795742960E0
8.902187292E0,-2.685415649E-1,1.726360016E0,9.628128204E0,9.785360811E0
8.912166292E0,-2.665956116E-1,1.733545074E0,9.666448517E0,9.824280059E0
8.922145292E0,-2.389031982E-1,1.748513947E0,9.679022369E0,9.838589827E0
8.932124292E0,-2.318678284E-1,1.774110718E0,9.661957855E0,9.826223136E0
8.942103292E0,-2.469863892E-1,1.787433014E0,9.622290344E0,9.790014838E0
8.952082292E0,-2.537223816E-1,1.781595154E0,9.583970032E0,9.751458245E0
8.962061292E0,-2.619552612E-1,1.776505737E0,9.562714233E0,9.729855945E0
8.972040292E0,-2.412982178E-1,1.785187683E0,9.529333649E0,9.698109078E0
8.982020292E0,-2.038760376E-1,1.788929901E0,9.510323181E0,9.679260439E0
8.991999292E0,-2.110610962E-1,1.773961029E0,9.520052948E0,9.686221794E0
9.001978292E0,-1.960922241E-1,1.754501495E0,9.501042480E0,9.663670932E0
9.011957292E0,-1.951940918E-1,1.733096008E0,9.525292053E0,9.683641423E0
9.021936292E0,-2.278262329E-1,1.704206085E0,9.547895050E0,9.701470149E0
9.031915292E0,-2.811154175E-1,1.686692505E0,9.568103027E0,9.719699225E0
9.041894292E0,-3.553610229E-1,1.689386902E0,9.561217346E0,9.715821463E0
9.051873292E0,-3.727249146E-1,1.670975189E0,9.528285828E0,9.680873553E0
9.061852292E0,-2.412982178E-1,1.798809357E0,9.506580963E0,9.678275752E0
9.071831292E0,-2.327659607E-1,1.784888306E0,9.469458160E0,9.639016760E0
9.081810292E0,-2.158511353E-1,1.794618073E0,9.463320923E0,9.634401311E0
9.091789292E0,-2.200424194E-1,1.783990173E0,9.539512482E0,9.707385745E0
9.101769292E0,-2.441423035E-1,1.807191925E0,9.588460693E0,9.760334348E0
9.111748292E0,-2.197430420E-1,1.859732666E0,9.599837036E0,9.780785434E0
9.121727292E0,-2.281256104E-1,1.840572510E0,9.641001434E0,9.817772513E0
9.131706292E0,-2.389031982E-1,1.766775970E0,9.610315247E0,9.774289294E0
9.141685292E0,-2.384541321E-1,1.800605621E0,9.528435516E0,9.700006411E0
9.151664292E0,-2.167492676E-1,1.823507996E0,9.508077850E0,9.683785730E0
9.161643292E0,-2.263293457E-1,1.814526672E0,9.436077576E0,9.611622757E0
9.171622292E0,-2.387535095E-1,1.815125427E0,9.424850922E0,9.601015491E0
9.181601292E0,-2.625540161E-1,1.795965271E0,9.462422791E0,9.634929732E0
9.191580292E0,-3.288661194E-1,1.781445465E0,9.533075867E0,9.703671282E0
9.201559292E0,-3.746708679E-1,1.770069122E0,9.597891083E0,9.766935865E0
9.211538292E0,-3.818559265E-1,1.778751068E0,9.657616882E0,9.827478474E0
9.221517292E0,-3.156935120E-1,1.802401886E0,9.675878906E0,9.847382777E0
9.231497292E0,-2.791694641E-1,1.786385193E0,9.655072174E0,9.822908242E0
9.241476292E0,-2.294728088E-1,1.803449707E0,9.619595947E0,9.789878181E0
9.251455292E0,-2.110610962E-1,1.804347839E0,9.582473145E0,9.753153822E0
9.261434292E0,-2.224374390E-1,1.814826050E0,9.534273376E0,9.708009107E0
9.271413292E0,-2.628533936E-1,1.813628540E0,9.542506256E0,9.716880468E0
9.281392292E0,-2.764750671E-1,1.779499512E0,9.573342133E0,9.741249230E0
9.291371292E0,-2.805166626E-1,1.748214569E0,9.612410889E0,9.774118214E0
9.301350292E0,-2.785707092E-1,1.744322662E0,9.627230072E0,9.787942687E0
9.311329292E0,-3.073109436E-1,1.719923401E0,9.620793457E0,9.778151321E0
9.321308292E0,-3.168910217E-1,1.702409821E0,9.617350616E0,9.772003479E0
9.331287292E0,-2.806663513E-1,1.725461884E0,9.585915985E0,9.744012397E0
9.341266292E0,-2.692900085E-1,1.748064880E0,9.565109253E0,9.727258759E0
9.351246292E0,-2.948867798E-1,1.742227020E0,9.548344116E0,9.710467989E0
9.361225292E0,-3.118016052E-1,1.745071106E0,9.543554077E0,9.706797506E0
9.371204292E0,-3.058140564E-1,1.726509705E0,9.566306763E0,9.725666202E0
9.381183292E0,-2.817141724E-1,1.702559509E0,9.565558319E0,9.719978277E0
9.391162292E0,-2.556683350E-1,1.725162506E0,9.558972015E0,9.716763760E0
9.401141292E0,-2.380050659E-1,1.757794647E0,9.520801392E0,9.684634612E0
9.411120292E0,-2.604583740E-1,1.749112701E0,9.491163025E0,9.654502026E0
9.421099292E0,-2.790197754E-1,1.730700989E0,9.481133881E0,9.641839949E0
9.431078292E0,-2.478845215E-1,1.758243713E0,9.461524658E0,9.626698113E0
9.441057292E0,-2.299218750E-1,1.787732391E0,9.483229523E0,9.653004369E0
9.451036292E0,-2.414479065E-1,1.758094025E0,9.488318939E0,9.652843518E0
9.461015292E0,-2.650987244E-1,1.758243713E0,9.521250458E0,9.685861271E0
9.470995292E0,-2.835104370E-1,1.744921417E0,9.591304779E0,9.752858878E0
9.480974292E0,-2.811154175E-1,1.734742584E0,9.629625092E0,9.788668812E0
9.490953292E0,-2.745291138E-1,1.749561768E0,9.654772797E0,9.815853013E0
9.500932292E0,-2.637515259E-1,1.715432739E0,9.714797974E0,9.868615608E0
9.510911292E0,-2.761756897E-1,1.662891998E0,9.758956146E0,9.903469487E0
9.520890292E0,-2.781216431E-1,1.653910675E0,9.799222412E0,9.941706697E0
9.530869292E0,-2.775228882E-1,1.694027252E0,9.803713074E0,9.952865784E0
9.540848292E0,-3.092568970E-1,1.711840210E0,9.790241089E0,9.943583726E0
9.550827292E0,-3.131488037E-1,1.738035736E0,9.726623383E0,9.885647820E0
9.560806292E0,-2.803669739E-1,1.777852936E0,9.670041046E0,9.836110031E0
9.570785292E0,-2.686912537E-1,1.788480835E0,9.613009644E0,9.781656971E0
9.580764292E0,-2.865042114E-1,1.763931885E0,9.559121704E0,9.724728691E0
9.590743292E0,-2.537223816E-1,1.764979706E0,9.532926178E0,9.698258087E0
9.600723292E0,-2.639012146E-1,1.738035736E0,9.528136139E0,9.688951974E0
9.610702292E0,-2.674937439E-1,1.700014801E0,9.534572754E0,9.688636686E0
9.620681292E0,-2.692900085E-1,1.702709198E0,9.574389954E0,9.728344089E0
9.630660292E0,-2.472857666E-1,1.718426514E0,9.618847504E0,9.774270675E0
9.640639292E0,-2.650987244E-1,1.708247681E0,9.589059448E0,9.743636312E0
9.650618292E0,-3.061134338E-1,1.689985657E0,9.587861938E0,9.740475014E0
9.660597292E0,-3.278182983E-1,1.703307953E0,9.574090576E0,9.729950317E0
9.670576292E0,-3.451821899E-1,1.682351532E0,9.577383728E0,9.730145759E0
9.680555292E0,-3.379971313E-1,1.670526123E0,9.586514740E0,9.736845714E0
9.690534292E0,-3.049159241E-1,1.690135345E0,9.573491821E0,9.726318772E0
9.700513292E0,-2.727328491E-1,1.725611572E0,9.551188202E0,9.709650590E0
9.710492292E0,-2.749781799E-1,1.753603363E0,9.548793182E0,9.712372985E0
9.720472292E0,-2.793191528E-1,1.761686554E0,9.535770264E0,9.701158344E0
9.730451292E0,-2.835104370E-1,1.742526398E0,9.537566528E0,9.699585130E0
9.740430292E0,-2.677931213E-1,1.740580444E0,9.545350342E0,9.706443560E0
9.750409292E0,-2.661465454E-1,1.742227020E0,9.556277618E0,9.717439524E0
9.760388292E0,-3.031196594E-1,1.741029510E0,9.584119720E0,9.745687051E0
9.770367292E0,-3.186872864E-1,1.743274841E0,9.641450500E0,9.802965700E0
9.780346292E0,-3.829037476E-1,1.738784180E0,9.685908051E0,9.848187674E0
9.790325792E0,-4.243675232E-1,1.739832001E0,9.714049530E0,9.877745768E0
9.800304792E0,-4.430786133E-1,1.748064880E0,9.737999725E0,9.903569464E0
9.810283792E0,-4.400848389E-1,1.753453674E0,9.777816925E0,9.943539524E0
9.820262792E0,-4.090992737E-1,1.777403870E0,9.714498596E0,9.884230355E0
9.830241792E0,-3.493734741E-1,1.780697021E0,9.668993225E0,9.837803296E0
9.840220792E0,-3.144960022E-1,1.773961029E0,9.632169800E0,9.799211219E0
9.850200792E0,-3.200344849E-1,1.737436981E0,9.621691589E0,9.782538442E0
9.860179792E0,-3.466790771E-1,1.721270599E0,9.640252991E0,9.798848738E0
9.870158792E0,-3.336561584E-1,1.733694763E0,9.658964081E0,9.818992366E0
9.880137792E0,-2.962339783E-1,1.727707214E0,9.666897583E0,9.824542517E0
9.890116792E0,-2.511776733E-1,1.758692780E0,9.637109528E0,9.799488281E0
9.900095792E0,-2.228865051E-1,1.788480835E0,9.577084351E0,9.745198138E0
9.910074792E0,-2.375559998E-1,1.825753326E0,9.515113220E0,9.691603977E0
9.920053792E0,-2.854563904E-1,1.817071381E0,9.463620300E0,9.640712782E0
9.930032792E0,-2.965333557E-1,1.804497528E0,9.447753296E0,9.623106863E0
9.940011792E0,-2.751278687E-1,1.802701263E0,9.458081818E0,9.632275892E0
9.949990792E0,-2.707868958E-1,1.793420563E0,9.443711700E0,9.616307687E0
9.959969792E0,-2.730322266E-1,1.785487061E0,9.456734619E0,9.627686134E0
9.969949792E0,-2.369572449E-1,1.773661652E0,9.439370728E0,9.607483756E0
9.979928792E0,-2.116598511E-1,1.771416321E0,9.443711700E0,9.610744318E0
9.989907792E0,-1.794767761E-1,1.775457916E0,9.458081818E0,9.624955813E0
9.999886792E0,-1.601669312E-1,1.779948578E0,9.465117188E0,9.632357643E0
1.000986579E1,-1.794767761E-1,1.753753052E0,9.480984192E0,9.643491221E0
1.001984479E1,-1.990859985E-1,1.734143829E0,9.515861664E0,9.674632461E0
1.002982379E1,-2.604583740E-1,1.733844452E0,9.554181976E0,9.713724743E0
1.003980279E1,-3.067121887E-1,1.755848694E0,9.572893066E0,9.737420534E0
1.004978179E1,-2.815644836E-1,1.794019318E0,9.609417114E0,9.779503113E0
1.005976079E1,-2.853067017E-1,1.845212860E0,9.627379761E0,9.806765597E0
1.006973979E1,-3.290158081E-1,1.839225311E0,9.580676880E0,9.761166458E0
1.007971879E1,-3.396437073E-1,1.836530914E0,9.546098785E0,9.727086186E0
1.008969779E1,-3.531156921E-1,1.878593445E0,9.502090302E0,9.692446756E0
1.009967779E1,-3.522175598E-1,1.868264923E0,9.496102753E0,9.684546377E0
1.010965679E1,-3.168910217E-1,1.860481110E0,9.496551819E0,9.682267623E0
1.011963579E1,-2.773731995E-1,1.862427063E0,9.531728668E0,9.715936489E0
1.012961479E1,-2.788700867E-1,1.861229553E0,9.598340149E0,9.781108198E0
1.013959379E1,-3.269201660E-1,1.830992432E0,9.600286102E0,9.778798665E0
1.014957279E1,-3.815565491E-1,1.818867645E0,9.604627075E0,9.782777017E0
1.015955179E1,-3.739224243E-1,1.801354065E0,9.593400421E0,9.768215092E0
1.016953079E1,-3.219804382E-1,1.801952820E0,9.542206879E0,9.716193570E0
1.017950979E1,-3.089575195E-1,1.785037994E0,9.518705750E0,9.689560080E0
1.018948879E1,-3.050656128E-1,1.789678345E0,9.502988434E0,9.674854148E0
1.019946779E1,-3.023712158E-1,1.802252197E0,9.498797150E0,9.672987575E0
1.020944679E1,-3.243754578E-1,1.844763794E0,9.492360535E0,9.675395672E0
1.021942679E1,-3.200344849E-1,1.877994690E0,9.475595398E0,9.665205340E0
1.022940579E1,-3.252735901E-1,1.895358582E0,9.475894775E0,9.669062460E0
1.023938479E1,-3.071612549E-1,1.862876129E0,9.468560028E0,9.654961653E0
1.024936379E1,-3.085084534E-1,1.846410370E0,9.495354309E0,9.678128031E0
1.025934279E1,-2.999761963E-1,1.860630798E0,9.530531158E0,9.715089132E0
1.026932179E1,-3.341052246E-1,1.836680603E0,9.572294312E0,9.752632482E0
1.027930079E1,-3.338058472E-1,1.823657684E0,9.629325714E0,9.806174963E0
1.028927979E1,-3.164419556E-1,1.824256439E0,9.657766571E0,9.833641350E0
1.029925879E1,-2.824626160E-1,1.803150330E0,9.700577545E0,9.870782185E0
1.030923779E1,-2.987786865E-1,1.807491302E0,9.686506805E0,9.858230450E0
1.031921679E1,-2.936892700E-1,1.816023560E0,9.663604431E0,9.837146210E0
1.032919579E1,-2.863545227E-1,1.818717957E0,9.643845520E0,9.818018656E0
1.033917479E1,-2.754272461E-1,1.839375000E0,9.644294586E0,9.821994636E0
1.034915479E1,-2.489323425E-1,1.866019592E0,9.621392212E0,9.803835195E0
1.035913379E1,-2.763253784E-1,1.872605896E0,9.596843262E0,9.781738554E0
1.036911279E1,-3.317102051E-1,1.859882355E0,9.568701782E0,9.753422365E0
1.037909179E1,-3.305126953E-1,1.852996674E0,9.541608124E0,9.725488209E0
1.038907079E1,-3.173400879E-1,1.866618347E0,9.507179718E0,9.693886474E0
1.039904979E1,-3.231779480E-1,1.867666168E0,9.447603607E0,9.635861914E0
1.040902879E1,-3.477268982E-1,1.869462433E0,9.394314423E0,9.584829015E0
1.041900779E1,-3.616479492E-1,1.841770020E0,9.367819519E0,9.554001705E0
1.042898679E1,-3.550616455E-1,1.834584961E0,9.338031464E0,9.523161364E0
1.043896579E1,-2.915936279E-1,1.842817841E0,9.350904694E0,9.535220135E0
1.044894479E1,-2.631527710E-1,1.842817841E0,9.329349518E0,9.513253355E0
1.045892379E1,-2.383044434E-1,1.861379242E0,9.264234924E0,9.452384378E0
1.046890379E1,-2.694396973E-1,1.848955078E0,9.358838196E0,9.543536295E0
1.047888279E1,-3.173400879E-1,1.866768036E0,9.406588898E0,9.595282295E0
1.048886179E1,-4.236190796E-1,1.861678619E0,9.428443451E0,9.619815295E0
1.049884079E1,-5.173242188E-1,1.824555817E0,9.565708008E0,9.751892020E0
1.050881979E1,-5.424719238E-1,1.752555542E0,9.744735718E0,9.915926630E0
1.051879879E1,-4.754113770E-1,1.693129120E0,9.852661285E0,1.000837832E1
1.052877779E1,-3.909869385E-1,1.677411804E0,9.902058563E0,1.005073853E1
1.053875679E1,-3.182382202E-1,1.695524139E0,9.876761169E0,1.002628989E1
1.054873579E1,-3.061134338E-1,1.710343323E0,9.776020660E0,9.929227546E0
1.055871479E1,-3.165916443E-1,1.695374451E0,9.658814392E0,9.811586022E0
1.056869379E1,-3.147953796E-1,1.691931610E0,9.548643494E0,9.702490468E0
1.057867279E1,-3.005749512E-1,1.692979431E0,9.473350067E0,9.628129940E0
1.058865179E1,-2.968327332E-1,1.715283051E0,9.444310455E0,9.603400731E0
1.059863179E1,-2.830613708E-1,1.705553284E0,9.418414307E0,9.575780062E0
1.060861079E1,-3.050656128E-1,1.684596863E0,9.440867615E0,9.594837828E0
1.061858979E1,-2.893482971E-1,1.683698730E0,9.437125397E0,9.590510915E0
1.062856879E1,-3.124003601E-1,1.706601105E0,9.457782440E0,9.615598265E0
1.063854779E1,-3.411405945E-1,1.709145813E0,9.458081818E0,9.617321248E0
1.064852679E1,-3.165916443E-1,1.715283051E0,9.463919678E0,9.623315535E0
1.065850579E1,-2.827619934E-1,1.733545074E0,9.467512207E0,9.629066427E0
1.066848479E1,-2.462379456E-1,1.716031494E0,9.479038239E0,9.636262924E0
1.067846379E1,-2.258802795E-1,1.726210327E0,9.511969757E0,9.669973767E0
1.068844279E1,-2.246827698E-1,1.732796631E0,9.573791199E0,9.731934259E0
1.069842179E1,-2.727328491E-1,1.729503479E0,9.624984741E0,9.782939066E0
1.070840079E1,-3.302133179E-1,1.691632233E0,9.668544159E0,9.820967702E0
1.071838079E1,-3.538641357E-1,1.687590637E0,9.729617157E0,9.881226240E0
1.072835979E1,-3.261717224E-1,1.705702972E0,9.754166107E0,9.907551013E0
1.073833879E1,-3.085084534E-1,1.697021027E0,9.731263733E0,9.882942460E0
1.074831779E1,-2.863545227E-1,1.676214294E0,9.705217896E0,9.853067932E0
1.075829679E1,-2.556683350E-1,1.683848419E0,9.691446533E0,9.839961773E0
1.076827579E1,-2.697390747E-1,1.706152039E0,9.672136688E0,9.825168806E0
1.077825479E1,-2.658471680E-1,1.688788147E0,9.644144897E0,9.794499013E0
1.078823379E1,-2.258802795E-1,1.676214294E0,9.610315247E0,9.758015956E0
1.079821146E1,-2.258802795E-1,1.669777679E0,9.596693573E0,9.743495622E0
1.080819046E1,-2.330653381E-1,1.660646667E0,9.603728943E0,9.749034640E0
1.081816946E1,-2.438429260E-1,1.660646667E0,9.642348633E0,9.787343556E0
1.082814846E1,-2.354603577E-1,1.674717407E0,9.651479645E0,9.798529446E0
1.083812746E1,-2.363584900E-1,1.697170715E0,9.661059723E0,9.811846347E0
1.084810746E1,-2.275268555E-1,1.700613556E0,9.633367310E0,9.784969119E0
1.085808646E1,-2.248324585E-1,1.716031494E0,9.582473145E0,9.737510220E0
1.086806546E1,-2.192939758E-1,1.721120911E0,9.545949097E0,9.702344624E0
1.087804446E1,-2.260299683E-1,1.721270599E0,9.516310730E0,9.673367146E0
1.088802346E1,-2.365081787E-1,1.730401611E0,9.499994659E0,9.659198951E0
1.089800246E1,-2.157014465E-1,1.723066864E0,9.508377228E0,9.665646592E0
1.090798146E1,-2.231858826E-1,1.681902466E0,9.507329407E0,9.657531791E0
1.091796046E1,-2.442919922E-1,1.678908691E0,9.532626801E0,9.682426694E0
1.092793946E1,-2.579136658E-1,1.680854645E0,9.560169525E0,9.710233424E0
1.093791846E1,-2.865042114E-1,1.667083282E0,9.576635284E0,9.724875048E0
1.094789746E1,-2.942880249E-1,1.673220520E0,9.583221588E0,9.732646524E0
1.095787646E1,-2.537223816E-1,1.678459625E0,9.596394196E0,9.745377536E0
1.096785646E1,-2.309696960E-1,1.677411804E0,9.633367310E0,9.781044069E0
1.097783546E1,-2.450404358E-1,1.685195618E0,9.625284119E0,9.774764624E0
1.098781446E1,-2.718347168E-1,1.692530365E0,9.622589722E0,9.774087482E0
1.099779346E1,-2.823129272E-1,1.688638458E0,9.644144897E0,9.794933958E0
1.100777246E1,-2.830613708E-1,1.680704956E0,9.647138672E0,9.796539054E0
1.101775146E1,-2.859054565E-1,1.685494995E0,9.652078400E0,9.802308541E0
1.102773046E1,-3.013233948E-1,1.685794373E0,9.640252991E0,9.791178488E0
1.103770946E1,-2.880010986E-1,1.686991882E0,9.622739410E0,9.773740328E0
1.104768846E1,-3.001258850E-1,1.689835968E0,9.635612640E0,9.787269900E0
1.105766746E1,-2.676434326E-1,1.713037720E0,9.655820618E0,9.810249897E0
1.106764646E1,-2.791694641E-1,1.698667603E0,9.652976532E0,9.805272211E0
1.107762546E1,-2.832110596E-1,1.681154022E0,9.651329956E0,9.800747791E0
1.108760446E1,-2.718347168E-1,1.689985657E0,9.635313263E0,9.786174294E0
1.109758446E1,-2.365081787E-1,1.713486786E0,9.602381744E0,9.756931293E0
1.110756346E1,-2.613565063E-1,1.694775696E0,9.576036530E0,9.728363043E0
1.111754246E1,-3.143463135E-1,1.651815033E0,9.594897308E0,9.741117024E0
1.112752146E1,-3.119512939E-1,1.633553009E0,9.599837036E0,9.742827113E0
1.113750046E1,-2.618055725E-1,1.648222504E0,9.622589722E0,9.766238402E0
1.114747946E1,-2.152523804E-1,1.639091492E0,9.617350616E0,9.758400862E0
1.115745846E1,-1.880090332E-1,1.633852386E0,9.620494080E0,9.760057754E0
1.116743746E1,-1.444496155E-1,1.649420013E0,9.586963806E0,9.728891360E0
1.117741646E1,-1.363664246E-1,1.656754761E0,9.587113495E0,9.730168411E0
1.118739546E1,-1.742376709E-1,1.639839935E0,9.593400421E0,9.734103216E0
1.119737446E1,-1.847158813E-1,1.636397095E0,9.579179993E0,9.719701885E0
1.120735346E1,-1.736389160E-1,1.631756744E0,9.558522949E0,9.698357671E0
1.121733246E1,-1.998344421E-1,1.593735809E0,9.545350342E0,9.679547550E0
1.122731246E1,-2.278262329E-1,1.600022736E0,9.542655945E0,9.678546380E0
1.123729146E1,-2.041754150E-1,1.608854370E0,9.536818085E0,9.673727263E0
1.124727046E1,-2.100132751E-1,1.625320129E0,9.511969757E0,9.652115818E0
1.125724946E1,-1.785786438E-1,1.637145538E0,9.508826294E0,9.650384103E0
1.126722846E1,-1.610650635E-1,1.657203827E0,9.535321198E0,9.679597968E0
1.127720746E1,-1.806742859E-1,1.655557251E0,9.550888824E0,9.694998213E0
1.128718646E1,-2.438429260E-1,1.657054138E0,9.578132172E0,9.723471792E0
1.129716546E1,-2.740800476E-1,1.643731842E0,9.605974274E0,9.749446958E0
1.130714446E1,-2.553689575E-1,1.624122620E0,9.657467194E0,9.796410577E0
1.131712346E1,-2.174977112E-1,1.655706940E0,9.666448517E0,9.809632901E0
1.132710246E1,-2.014810181E-1,1.685944061E0,9.629774780E0,9.778321139E0
1.133708146E1,-2.637515259E-1,1.686093750E0,9.593849487E0,9.744456115E0
1.134706146E1,-3.221301270E-1,1.671124878E0,9.564061432E0,9.714303745E0
1.135704046E1,-3.097059631E-1,1.694925385E0,9.591005402E0,9.744540751E0
1.136701946E1,-2.770738220E-1,1.720222778E0,9.599088593E0,9.755943733E0
1.137699846E1,-2.773731995E-1,1.735491028E0,9.590855713E0,9.750557846E0
1.138697746E1,-2.883004761E-1,1.723665619E0,9.598489838E0,9.756287588E0
1.139695646E1,-2.906954956E-1,1.713636475E0,9.618248749E0,9.774035136E0
1.140693546E1,-3.293151855E-1,1.734293518E0,9.605974274E0,9.766829795E0
1.141691446E1,-3.147953796E-1,1.756746826E0,9.606872406E0,9.771246234E0
1.142689346E1,-2.706372070E-1,1.815574493E0,9.604327698E0,9.778172926E0
1.143687246E1,-1.936972046E-1,1.902244263E0,9.571695557E0,9.760809786E0
1.144685146E1,-1.327738953E-1,1.991009674E0,9.514514465E0,9.721508830E0
1.145683046E1,-1.136137390E-1,2.046693878E0,9.505084076E0,9.723604640E0
1.146680946E1,-6.631210327E-2,2.105671234E0,9.535021820E0,9.764982834E0
1.147678946E1,-1.029858398E-1,2.188898163E0,9.667496338E0,9.912737598E0
1.148676846E1,-1.227447510E-1,2.233056335E0,9.800270233E0,1.005220889E1
1.149674746E1,-1.098715210E-1,2.142943726E0,9.926457825E0,1.015572964E1
1.150672646E1,-1.261875916E-1,2.035766602E0,9.947863312E0,1.015481430E1
1.151670546E1,-1.216969299E-1,1.987417145E0,9.917326813E0,1.011523644E1
1.152668446E1,-1.167572021E-1,1.941762085E0,9.873468018E0,1.006327198E1
1.153666346E1,-7.140151978E-2,1.876497803E0,9.795779572E0,9.974148565E0
1.154664246E1,-8.981323242E-2,1.832788696E0,9.704918518E0,9.876873203E0
1.155662146E1,-2.186952209E-1,1.858535156E0,9.594747620E0,9.775538983E0
1.156660046E1,-8.966354370E-2,1.867067413E0,9.454339600E0,9.637350131E0
1.157657946E1,8.681945801E-3,1.814526672E0,9.379794617E0,9.553697162E0
1.158655846E1,2.005828857E-2,1.725012817E0,9.224567413E0,9.384493354E0
1.159653846E1,1.766326904E-2,1.684147797E0,9.194330292E0,9.347319151E0
1.160651746E1,-1.157093811E-1,1.711989899E0,9.211245117E0,9.369703020E0
1.161649646E1,-2.990780640E-1,1.732197876E0,9.214687958E0,9.380854510E0
1.162647546E1,-4.454736328E-1,1.767823792E0,9.314380646E0,9.491118719E0
1.163645446E1,-3.966751099E-1,1.722019043E0,9.422156525E0,9.586434911E0
1.164643346E1,-2.490820312E-1,1.648372192E0,9.559421082E0,9.703695387E0
1.165641246E1,-1.657054138E-1,1.683848419E0,9.609267426E0,9.757090972E0
1.166639146E1,-1.285826111E-1,1.794767761E0,9.635013885E0,9.801592594E0
1.167637046E1,-1.892065430E-1,1.810185699E0,9.622140656E0,9.792760703E0
1.168634946E1,-3.228785706E-1,1.758543091E0,9.634714508E0,9.799206500E0
1.169632846E1,-4.384382629E-1,1.721869354E0,9.751621399E0,9.912173429E0
1.170630746E1,-4.501139832E-1,1.727707214E0,9.806706848E0,9.967902188E0
1.171628646E1,-3.959266663E-1,1.759890289E0,9.782606964E0,9.947530888E0
1.172626646E1,-2.118095398E-1,1.843266907E0,9.730964355E0,9.906268897E0
1.173624546E1,-3.832031250E-2,1.979783020E0,9.587712250E0,9.790057989E0
1.174622446E1,1.233435059E-1,2.085463257E0,9.400002594E0,9.629351971E0
1.175620346E1,1.686991882E-1,2.138752441E0,9.277557220E0,9.522383599E0
1.176618246E1,1.053808594E-1,2.164648590E0,9.221274261E0,9.472523827E0
1.177616146E1,1.652563477E-1,2.192790070E0,9.251062317E0,9.508827054E0
1.178614046E1,2.356100464E-1,2.123633881E0,9.326505432E0,9.568126072E0
1.179611979E1,2.312690735E-1,2.056573334E0,9.440717926E0,9.664891837E0
1.180609879E1,2.549198914E-1,2.142644348E0,9.504635010E0,9.746486322E0
1.181607779E1,3.306623840E-1,2.250869293E0,9.555080109E0,9.822184384E0
1.182605679E1,3.326083374E-1,2.234702911E0,9.545649719E0,9.809380917E0
1.183603579E1,3.356021118E-1,2.121987305E0,9.422156525E0,9.663979122E0
1.184601579E1,3.195854187E-1,1.952689362E0,9.322314148E0,9.529988020E0
1.185599479E1,2.363584900E-1,1.809736633E0,9.263785858E0,9.441861069E0
1.186597379E1,2.047741699E-1,1.749412079E0,9.236991577E0,9.403424295E0
1.187595279E1,1.510359192E-1,1.733694763E0,9.267677765E0,9.429653256E0
1.188593179E1,1.633103943E-1,1.787283325E0,9.400002594E0,9.569801499E0
1.189591079E1,2.573149109E-1,1.915865936E0,9.454339600E0,9.649937332E0
1.190588979E1,3.727249146E-1,2.047442322E0,9.481433258E0,9.707137608E0
1.191586879E1,4.354444885E-1,2.137854309E0,9.472002869E0,9.720024243E0
1.192584779E1,4.068539429E-1,2.169139252E0,9.419911194E0,9.674989515E0
1.193582679E1,3.061134338E-1,2.123334503E0,9.413624268E0,9.654976784E0
1.194580579E1,2.755769348E-1,2.073637848E0,9.490863647E0,9.718662940E0
1.195578479E1,3.911366272E-1,2.172881470E0,9.589059448E0,9.839942218E0
1.196576379E1,5.255570984E-1,2.327659607E0,9.654473419E0,9.945002087E0
1.197574379E1,5.161267090E-1,2.327060852E0,9.639055481E0,9.929400262E0
1.198572279E1,4.846920776E-1,2.262994080E0,9.564660187E0,9.840670358E0
1.199570179E1,5.010081482E-1,2.180066528E0,9.526788940E0,9.785877924E0
1.200568079E1,5.101391602E-1,2.159708862E0,9.476942596E0,9.733294679E0
1.201565979E1,5.209167480E-1,2.165846100E0,9.414821777E0,9.674766803E0
1.202563879E1,5.411247253E-1,2.169139252E0,9.418414307E0,9.680108941E0
1.203561779E1,5.809419250E-1,2.255809021E0,9.376351776E0,9.661373634E0
1.204559679E1,5.568420410E-1,2.371219025E0,9.326954498E0,9.639752742E0
1.205557579E1,4.558021545E-1,2.429447937E0,9.256451111E0,9.580806858E0
1.206555479E1,3.613485718E-1,2.435734863E0,9.217232666E0,9.540479817E0
1.207553379E1,3.135978699E-1,2.452350311E0,9.190887451E0,9.517603575E0
1.208551279E1,2.944377136E-1,2.441872101E0,9.180708618E0,9.504464407E0
1.209549179E1,3.212319946E-1,2.412084045E0,9.190737762E0,9.507418159E0
1.210547179E1,3.664379883E-1,2.351160736E0,9.195527802E0,9.498419087E0
1.211545079E1,3.571572876E-1,2.196681976E0,9.239835663E0,9.504079972E0
1.212542979E1,3.784130859E-1,2.026785278E0,9.353150024E0,9.577706949E0
1.213540879E1,3.803590393E-1,1.927092590E0,9.566456451E0,9.766035423E0
1.214538779E1,3.778143311E-1,1.880389709E0,9.861343231E0,1.004612858E1
1.215536679E1,4.302053833E-1,1.900148621E0,1.013557297E1,1.032111820E1
1.216534579E1,4.526586914E-1,1.997296600E0,1.031295410E1,1.051432908E1
1.217532479E1,3.844006348E-1,2.053429871E0,1.041010208E1,1.061765339E1
1.218530379E1,2.905458069E-1,2.095492401E0,1.045021866E1,1.066220312E1
1.219528279E1,2.441423035E-1,2.161056061E0,1.040321640E1,1.062810803E1
1.220526179E1,1.820214844E-1,2.253414001E0,1.030591873E1,1.055096997E1
1.221524079E1,1.766326904E-1,2.317630463E0,1.014455429E1,1.040742965E1
1.222521979E1,1.811233521E-1,2.323468323E0,9.940079498E0,1.020962738E1
1.223519979E1,2.252815247E-1,2.304457855E0,9.823022919E0,1.009222756E1
1.224517879E1,3.132984924E-1,2.317780151E0,9.757758636E0,1.003414742E1
1.225515779E1,2.845582581E-1,2.215842133E0,9.760902100E0,1.001329814E1
1.226513679E1,2.251318359E-1,2.060165863E0,9.733808441E0,9.951984450E0
1.227511579E1,2.420466614E-1,1.933229828E0,9.785750427E0,9.977819179E0
1.228509479E1,2.718347168E-1,1.839075623E0,9.843979340E0,1.001798495E1
1.229507379E1,2.393522644E-1,1.844913483E0,9.885742493E0,1.005926935E1
1.230505279E1,1.489402771E-1,1.833836517E0,9.937834167E0,1.010671497E1
1.231503179E1,-1.362167358E-2,1.744771729E0,9.945468292E0,1.009736369E1
1.232501079E1,-6.616241455E-2,1.699416046E0,9.954748993E0,1.009898113E1
1.233498979E1,-1.721420288E-2,1.776356049E0,9.913883972E0,1.007178398E1
1.234496879E1,9.160949707E-2,1.909728699E0,9.853858795E0,1.003762866E1
1.235494879E1,2.119592285E-1,2.056872711E0,9.745035095E0,9.961995838E0
1.236492779E1,3.022215271E-1,2.163900146E0,9.657317505E0,9.901392987E0
1.237490679E1,3.177891541E-1,2.168839874E0,9.564360809E0,9.812331733E0
1.238488579E1,2.173480225E-1,2.077679443E0,9.495204620E0,9.722288970E0
1.239486479E1,1.194515991E-1,1.939816132E0,9.502988434E0,9.699687855E0
1.240484379E1,8.517288208E-2,1.848356323E0,9.614207153E0,9.790641179E0
1.241482279E1,3.996688843E-2,1.747915192E0,9.780960388E0,9.935994715E0
1.242480179E1,1.122665405E-2,1.583107910E0,9.913434906E0,1.003905117E1
1.243478079E1,-1.556762695E-2,1.437460785E0,1.007255402E1,1.017461942E1
1.244475979E1,-8.083190918E-2,1.278341675E0,1.019544846E1,1.027559538E1
1.245473879E1,-1.053808594E-1,1.175355835E0,1.021805145E1,1.028596821E1
1.246471779E1,-1.323248291E-1,1.178948364E0,1.021505768E1,1.028371686E1
1.247469679E1,-2.055226135E-1,1.265169067E0,1.013452515E1,1.021525782E1
1.248467579E1,-2.465373230E-1,1.432820435E0,9.985435181E0,1.009072202E1
1.249465579E1,-2.213896179E-1,1.613195343E0,9.804162140E0,9.938461040E0
1.250463479E1,-1.169068909E-1,1.743125153E0,9.536518707E0,9.695222616E0
1.251461379E1,-1.047821045E-1,1.795815582E0,9.232351227E0,9.405968428E0
1.252459279E1,-2.188449097E-1,1.912423096E0,9.078321533E0,9.280149624E0
1.253457179E1,-3.007246399E-1,2.103725281E0,9.056916046E0,9.302893294E0
1.254455079E1,-3.739224243E-1,2.269580383E0,9.101373596E0,9.387535056E0
1.255452979E1,-5.273533630E-1,2.321222992E0,9.212891693E0,9.515437515E0
1.256450879E1,-7.174580383E-1,2.305805054E0,9.328002319E0,9.635512973E0
1.257448779E1,-8.758287048E-1,2.286195831E0,9.457333374E0,9.769079887E0
1.258446679E1,-1.025068359E0,2.239043884E0,9.617051239E0,9.927323768E0
1.259444579E1,-1.195713501E0,2.077080688E0,9.761800232E0,1.005170328E1
1.260442479E1,-1.260678406E0,1.960622864E0,9.936786346E0,1.020652120E1
1.261440479E1,-1.257085876E0,1.893712006E0,1.008048752E1,1.033356854E1
1.262438379E1,-1.217118988E0,1.795965271E0,1.012659164E1,1.035638587E1
1.263436279E1,-1.080004120E0,1.785786438E0,1.008752289E1,1.030114363E1
1.264434179E1,-8.542735291E-1,1.851649475E0,1.007734406E1,1.028159775E1
1.265432079E1,-6.487509155E-1,1.878892822E0,1.001746857E1,1.021277594E1
1.266429979E1,-4.278103638E-1,1.870809631E0,9.848020935E0,1.003326800E1
1.267427879E1,-1.919009399E-1,1.849853210E0,9.603728943E0,9.782146619E0
1.268425779E1,1.092727661E-2,1.799557800E0,9.339378662E0,9.511178764E0
1.269423679E1,1.336720276E-1,1.679657135E0,9.130562897E0,9.284734520E0
1.270421579E1,1.797761536E-1,1.592388611E0,9.064550171E0,9.205112208E0
1.271419479E1,2.359094238E-1,1.585802307E0,9.089548187E0,9.229859612E0
1.272417379E1,1.544787598E-1,1.578916626E0,9.273066559E0,9.407794896E0
1.273415279E1,-4.266128540E-2,1.543141022E0,9.462871857E0,9.587963703E0
1.274413279E1,-2.745291138E-1,1.556762695E0,9.652078400E0,9.780669392E0
1.275411179E1,-4.550537109E-1,1.625170441E0,9.745783539E0,9.890831594E0
1.276409079E1,-5.929170227E-1,1.702858887E0,9.796677704E0,9.961233509E0
1.277406979E1,-6.056405640E-1,1.807940369E0,9.768985291E0,9.953317159E0
1.278404879E1,-5.912704468E-1,1.907034302E0,9.663005676E0,9.867120110E0
1.279402792E1,-5.310955811E-1,1.979483643E0,9.475894775E0,9.694998700E0
1.280400692E1,-4.653822327E-1,2.016456757E0,9.294472046E0,9.522073781E0
1.281398592E1,-4.489164734E-1,2.013612671E0,9.113049316E0,9.343651847E0
1.282396492E1,-4.472698975E-1,1.997595978E0,8.970545654E0,9.201148265E0
1.283394392E1,-3.646417236E-1,1.983974304E0,8.934770050E0,9.159652476E0
1.284392292E1,-2.409988403E-1,2.038311310E0,8.972341919E0,9.204113914E0
1.285390192E1,-1.351689148E-1,2.054028625E0,9.009165344E0,9.241339969E0
1.286388092E1,-8.427474976E-2,2.030826874E0,8.975784760E0,9.203046891E0
1.287386092E1,1.901046753E-2,2.054627380E0,8.886719971E0,9.121164778E0
1.288383992E1,1.441502380E-1,2.132914581E0,8.786727905E0,9.043046565E0
1.289381892E1,1.992356873E-1,2.199376373E0,8.613088989E0,8.891695745E0
1.290379792E1,1.565744019E-1,2.187101898E0,8.425978088E0,8.706608812E0
1.291377692E1,1.163081360E-1,2.192341003E0,8.352331238E0,8.636047925E0
1.292375592E1,1.083746338E-1,2.206711121E0,8.320746918E0,8.609073603E0
1.293373492E1,1.472937012E-1,2.258653107E0,8.334518280E0,8.636399959E0
1.294371392E1,1.865121460E-1,2.327509918E0,8.407117310E0,8.725348741E0
1.295369292E1,2.053729248E-1,2.412682800E0,8.460406494E0,8.800096271E0
1.296367192E1,1.758842468E-1,2.461780701E0,8.482560425E0,8.834315528E0
1.297365092E1,1.405577087E-1,2.505190430E0,8.517437897E0,8.879329022E0
1.298362992E1,1.438508606E-1,2.580783234E0,8.565338287E0,8.946851689E0
1.299360992E1,1.182540894E-1,2.638712769E0,8.614585876E0,9.010431673E0
1.300358892E1,4.071533203E-2,2.614313507E0,8.738228760E0,9.121016101E0
1.301356792E1,-1.029858398E-1,2.561623077E0,8.944948883E0,9.305086211E0
1.302354692E1,-3.103047180E-1,2.458637238E0,9.291029205E0,9.615841605E0
1.303352592E1,-4.574487305E-1,2.344574432E0,9.766889648E0,1.005477111E1
1.304350492E1,-4.779560852E-1,2.266736298E0,1.027822632E1,1.053605579E1
1.305348392E1,-4.082011414E-1,2.220482483E0,1.084704346E1,1.107950912E1
1.306346292E1,-2.956352234E-1,2.135159912E0,1.132350266E1,1.152683913E1
1.307344192E1,-2.285746765E-1,2.031874695E0,1.153261780E1,1.171247345E1
1.308342092E1,-1.905537415E-1,1.895807648E0,1.144430145E1,1.160182887E1
1.309339992E1,-7.499404907E-2,1.877545624E0,1.096215408E1,1.112203326E1
1.310337892E1,-1.287322998E-2,1.854942627E0,1.057925034E1,1.074064782E1
1.311335792E1,-1.960922241E-2,1.875449982E0,1.015712814E1,1.032884065E1
1.312333692E1,-1.050814819E-1,1.955084381E0,9.745035095E0,9.939773944E0
1.313331692E1,-1.251397705E-1,2.004930725E0,9.495503998E0,9.705668619E0
1.314329592E1,-9.774673462E-2,2.042203217E0,9.359736328E0,9.580439057E0
1.315327492E1,-6.092330933E-2,2.049537964E0,9.292376404E0,9.515911766E0
1.316325392E1,1.990859985E-2,2.084714813E0,9.377998352E0,9.606939434E0
1.317323292E1,1.098715210E-1,2.071841583E0,9.558223572E0,9.780809636E0
1.318321192E1,1.501377869E-1,2.023043060E0,9.739496613E0,9.948519430E0
1.319319092E1,1.622625732E-1,1.971250763E0,9.867630157E0,1.006390996E1
1.320316992E1,1.387614441E-1,1.885329437E0,9.927206268E0,1.010559974E1
1.321314892E1,1.007405090E-1,1.845212860E0,9.910141754E0,1.008096566E1
1.322312792E1,1.631607056E-2,1.865570526E0,9.927206268E0,1.010099222E1
1.323310692E1,-1.212478638E-1,1.844314728E0,9.948312378E0,1.011855311E1
1.324308592E1,-3.372486877E-1,1.785636749E0,9.990225220E0,1.015415359E1
1.325306492E1,-5.532495117E-1,1.625020752E0,1.003468277E1,1.018045361E1
1.326304492E1,-6.553372192E-1,1.461710358E0,1.009979736E1,1.022604375E1
1.327302392E1,-6.574328613E-1,1.369651794E0,1.026340714E1,1.037524409E1
1.328300292E1,-5.831872559E-1,1.327589264E0,1.044093796E1,1.054114728E1
1.329298192E1,-5.644761658E-1,1.189725952E0,1.060664337E1,1.068807582E1
1.330296092E1,-5.613327026E-1,1.028960266E0,1.069855225E1,1.076256818E1
1.331293992E1,-5.225633240E-1,9.336085510E-1,1.068223618E1,1.073568196E1
1.332291892E1,-4.924758911E-1,8.402027893E-1,1.060664337E1,1.065126081E1
1.333289792E1,-4.207749939E-1,7.551795959E-1,1.050320847E1,1.053872553E1
1.334287692E1,-3.327580261E-1,7.644602966E-1,1.035711227E1,1.039061606E1
1.335285592E1,-2.850073242E-1,7.804769897E-1,1.022912842E1,1.026281841E1
1.336283492E1,-2.799179077E-1,7.812254333E-1,1.008363098E1,1.011772114E1
1.337281392E1,-2.182461548E-1,8.906478882E-1,9.972711639E0,1.001478220E1
1.338279392E1,-1.799258423E-1,9.803114319E-1,9.856403503E0,9.906668150E0
1.339277292E1,-1.892065430E-1,1.060544586E0,9.664203186E0,9.724061762E0
1.340275192E1,-1.902543640E-1,1.100661163E0,9.442514191E0,9.508350328E0
1.341273092E1,-1.627116394E-1,1.165027313E0,9.258097687E0,9.332531087E0
1.342270992E1,-1.345701599E-1,1.267264709E0,9.096433868E0,9.185269626E0
1.343268892E1,-1.781295776E-1,1.297651520E0,8.939709778E0,9.035155811E0
1.344266792E1,-2.160008240E-1,1.346599731E0,8.787626038E0,8.892826242E0
1.345264692E1,-2.010319519E-1,1.460063782E0,8.724158020E0,8.847775610E0
1.346262592E1,-2.125579834E-1,1.545236664E0,8.673114166E0,8.812255477E0
1.347260492E1,-2.546205139E-1,1.580862579E0,8.645122375E0,8.792161224E0
1.348258392E1,-2.881507874E-1,1.586850128E0,8.621471558E0,8.771025939E0
1.349256292E1,-2.987786865E-1,1.550176392E0,8.564739532E0,8.709022839E0
1.350254192E1,-2.640509033E-1,1.485061798E0,8.552764435E0,8.684751632E0
1.351252192E1,-2.157014465E-1,1.414857788E0,8.547375641E0,8.666370637E0
1.352250092E1,-1.731898499E-1,1.329684906E0,8.525072021E0,8.629884683E0
1.353247992E1,-8.771759033E-2,1.297950897E0,8.588390350E0,8.686358254E0
1.354245892E1,-1.930984497E-2,1.253493347E0,8.675808563E0,8.765915392E0
1.355243792E1,-2.993774414E-4,1.204245758E0,8.743617554E0,8.826157480E0
1.356241692E1,2.993774414E-2,1.146615601E0,8.809181213E0,8.883540806E0
1.357239592E1,6.167175293E-2,1.134041748E0,8.829987946E0,8.902726617E0
1.358237492E1,7.858657837E-2,1.137185211E0,8.860374756E0,8.933398394E0
1.359235392E1,1.085243225E-1,1.125210114E0,8.872499542E0,8.944222910E0
1.360233292E1,1.216969299E-1,1.152453461E0,8.916208649E0,8.991203245E0
1.361231192E1,1.688488770E-1,1.179846497E0,8.932973785E0,9.012134506E0
1.362229092E1,1.788780212E-1,1.223854980E0,8.979526978E0,9.064310404E0
1.363226992E1,2.131567383E-1,1.265767822E0,8.998238068E0,9.089328484E0
1.364224992E1,2.803669739E-1,1.355880432E0,9.017398224E0,9.123074488E0
1.365222892E1,3.165916443E-1,1.453178101E0,9.034612427E0,9.156209836E0
1.366220792E1,2.983296204E-1,1.529219971E0,9.045839081E0,9.179036930E0
1.367218692E1,2.097138977E-1,1.562301178E0,9.006021881E0,9.142931423E0
1.368216592E1,1.225950623E-1,1.548829193E0,8.963959351E0,9.097607854E0
1.369214492E1,7.379653931E-2,1.556912384E0,8.891510010E0,9.027091024E0
1.370212392E1,7.978408813E-2,1.618883514E0,8.847351837E0,8.994597482E0
1.371210292E1,1.255888367E-1,1.688788147E0,8.806935883E0,8.968271718E0
1.372208192E1,1.514849854E-1,1.758692780E0,8.809330902E0,8.984445388E0
1.373206092E1,2.100132751E-1,1.829944611E0,8.832981720E0,9.022991129E0
1.374203992E1,2.737806702E-1,1.921254730E0,8.886570282E0,9.096005001E0
1.375201892E1,2.377056885E-1,1.914668427E0,8.985813904E0,9.190609919E0
1.376199792E1,1.681004333E-1,1.856888580E0,9.126371613E0,9.314877979E0
1.377197792E1,4.655319214E-2,1.807491302E0,9.354048157E0,9.527193130E0
1.378195692E1,-1.052311707E-1,1.791324921E0,9.610315247E0,9.776404130E0
1.379193592E1,-2.662962341E-1,1.787582703E0,9.786947937E0,9.952422596E0
1.380191533E1,-3.932322693E-1,1.793719940E0,9.937834167E0,1.010606802E1
1.381189433E1,-3.971241760E-1,1.786385193E0,1.006611740E1,1.023110938E1
1.382187333E1,-3.881428528E-1,1.763183441E0,1.017898270E1,1.033785081E1
1.383185233E1,-4.276606750E-1,1.619631958E0,1.029529083E1,1.043068141E1
1.384183133E1,-4.700225830E-1,1.478325806E0,1.043165726E1,1.054636627E1
1.385181033E1,-3.848497009E-1,1.391506348E0,1.060230240E1,1.070015025E1
1.386178933E1,-2.558180237E-1,1.319655762E0,1.082084793E1,1.090402147E1
1.387176833E1,-1.290316772E-1,1.249900818E0,1.099388809E1,1.106546324E1
1.388174733E1,-1.137634277E-2,1.171613617E0,1.105660767E1,1.111851523E1
1.389172633E1,1.194515991E-1,1.095721436E0,1.102382584E1,1.107879101E1
1.390170633E1,2.239343262E-1,1.013841705E0,1.094464050E1,1.099377903E1
1.391168533E1,3.439846802E-1,1.008452911E0,1.083596649E1,1.088822633E1
1.392166433E1,4.805007935E-1,1.057550812E0,1.076770844E1,1.083018189E1
1.393164333E1,5.740562439E-1,1.041833496E0,1.066577042E1,1.073189714E1
1.394162233E1,5.854325867E-1,1.022673340E0,1.058942917E1,1.065479245E1
1.395160133E1,5.947132874E-1,1.086590424E0,1.060020676E1,1.067233554E1
1.396158033E1,5.882766724E-1,1.155596924E0,1.060649368E1,1.068546592E1
1.397155933E1,4.674778748E-1,1.155896301E0,1.060799057E1,1.068101567E1
1.398153833E1,2.225871277E-1,1.144220581E0,1.057505905E1,1.063910991E1
1.399151733E1,-7.589218140E-2,1.078207855E0,1.055215668E1,1.060737019E1
1.400149633E1,-2.368075562E-1,1.086440735E0,1.052670959E1,1.058527497E1
1.401147533E1,-3.203338623E-1,1.168320465E0,1.049572403E1,1.056540626E1
1.402145433E1,-4.200265503E-1,1.204395447E0,1.041998154E1,1.049776195E1
1.403143433E1,-4.635859680E-1,1.184037781E0,1.029693741E1,1.037515192E1
1.404141333E1,-4.791535950E-1,1.140029297E0,1.026295807E1,1.033719320E1
1.405139233E1,-3.894900513E-1,1.072220306E0,1.027643005E1,1.033955384E1
1.406137133E1,-3.438349915E-1,9.364526367E-1,1.022718246E1,1.027572028E1
1.407135033E1,-4.032614136E-1,6.782395935E-1,1.018556900E1,1.021608754E1
1.408132933E1,-3.287164307E-1,5.355862427E-1,1.019185593E1,1.021121121E1
1.409130833E1,-1.814227295E-1,5.060975647E-1,1.019529877E1,1.020946453E1
1.410128733E1,-7.619155884E-2,5.230123901E-1,1.015293686E1,1.016668451E1
1.411126633E1,-3.712280273E-2,5.563929749E-1,1.001567230E1,1.003118352E1
1.412124533E1,-1.095721436E-1,6.210585022E-1,9.834399261E0,9.854599360E0
1.413122433E1,-2.688409424E-1,6.783892822E-1,9.651629333E0,9.679175392E0
1.414120333E1,-4.929249573E-1,7.390132141E-1,9.492959290E0,9.534431898E0
1.415118233E1,-6.370751953E-1,7.917036438E-1,9.421408081E0,9.476053487E0
1.416116233E1,-6.953041077E-1,8.265811157E-1,9.431137848E0,9.492789119E0
1.417114133E1,-6.562353516E-1,8.361611938E-1,9.502090302E0,9.561356100E0
1.418112033E1,-5.294490051E-1,8.472381592E-1,9.615554352E0,9.667316807E0
1.419109933E1,-3.341052246E-1,8.635542297E-1,9.660610657E0,9.704882816E0
1.420107833E1,-1.074765015E-1,9.624984741E-1,9.645641785E0,9.694140496E0
1.421105733E1,1.079255676E-1,1.111139374E0,9.560169525E0,9.625129609E0
1.422103633E1,2.092648315E-1,1.302890625E0,9.365274811E0,9.457784520E0
1.423101533E1,1.842668152E-1,1.428778839E0,9.122629395E0,9.235677035E0
1.424099433E1,2.005828857E-2,1.487007751E0,8.832981720E0,8.957296492E0
1.425097333E1,-1.983375549E-1,1.458417206E0,8.591982880E0,8.717137623E0
1.426095233E1,-4.426295471E-1,1.335522766E0,8.477770386E0,8.593726356E0
1.427093133E1,-5.992039490E-1,1.219963074E0,8.504564667E0,8.612489503E0
1.428091033E1,-5.947132874E-1,1.138682098E0,8.774752808E0,8.868290007E0
1.429089033E1,-4.962181091E-1,1.084943848E0,9.112151184E0,9.189920281E0
1.430086933E1,-3.041674805E-1,1.026415558E0,9.373058624E0,9.433995693E0
1.431084833E1,-2.395019531E-2,1.037193146E0,9.540111237E0,9.596356894E0
1.432082733E1,2.041754150E-1,1.091829529E0,9.607770538E0,9.671764784E0
1.433080633E1,3.188369751E-1,1.093326416E0,9.510772247E0,9.578716428E0
1.434078533E1,3.514691162E-1,1.144969025E0,9.378746796E0,9.454912800E0
1.435076433E1,3.421884155E-1,1.245559845E0,9.175319824E0,9.265797651E0
1.436074333E1,2.947370911E-1,1.345851288E0,8.973838806E0,9.078984996E0
1.437072233E1,2.652484131E-1,1.454225922E0,8.740773468E0,8.864888638E0
1.438070133E1,2.790197754E-1,1.627565460E0,8.588689728E0,8.745994089E0
1.439068033E1,2.332150269E-1,1.727108459E0,8.463400269E0,8.640974308E0
1.440065933E1,4.625381470E-2,1.708547058E0,8.326584778E0,8.500193323E0
1.441063833E1,-1.898052979E-1,1.685494995E0,8.282875671E0,8.454758945E0
1.442061833E1,-3.471281433E-1,1.680704956E0,8.347391510E0,8.521984048E0
1.443059733E1,-5.316943359E-1,1.617686005E0,8.506959686E0,8.675711497E0
1.444057633E1,-6.137237549E-1,1.584455109E0,8.769513702E0,8.932610224E0
1.445055533E1,-5.346881104E-1,1.612596588E0,9.110205231E0,9.267264887E0
1.446053433E1,-4.575984192E-1,1.590592346E0,9.411828003E0,9.556248567E0
1.447051333E1,-3.118016052E-1,1.586251373E0,9.574090576E0,9.709615029E0
1.448049233E1,-1.281335449E-1,1.643881531E0,9.715097351E0,9.854028680E0
1.449047133E1,1.242416382E-2,1.658401337E0,9.719887390E0,9.860358017E0
1.450045033E1,7.484436035E-2,1.607806549E0,9.633666687E0,9.767199057E0
1.451042933E1,1.005908203E-1,1.605261841E0,9.555978241E0,9.690392367E0
1.452040833E1,1.242416382E-1,1.587149506E0,9.533375244E0,9.665387891E0
1.453038733E1,1.784289551E-1,1.644031219E0,9.533973999E0,9.676328630E0
1.454036633E1,1.968406677E-1,1.723066864E0,9.585766296E0,9.741387024E0
1.455034633E1,1.383123779E-1,1.722917175E0,9.612710266E0,9.766871176E0
1.456032533E1,8.053253174E-2,1.693877563E0,9.710157623E0,9.857122692E0
1.457030433E1,2.065704346E-2,1.659898224E0,9.874366150E0,1.001293142E1
1.458028333E1,-1.422042847E-2,1.600920868E0,1.003588028E1,1.016277732E1
1.459026233E1,-3.158432007E-2,1.532363434E0,1.026490402E1,1.037869885E1
1.460024133E1,-9.131011963E-3,1.487307129E0,1.051892578E1,1.062355710E1
1.461022033E1,9.280700684E-3,1.438807983E0,1.069645660E1,1.079279567E1
1.462019933E1,3.622467041E-2,1.424587555E0,1.074241104E1,1.083651959E1
1.463017833E1,6.391708374E-2,1.360670471E0,1.069046906E1,1.077690299E1
1.464015733E1,8.532257080E-2,1.300645294E0,1.054542068E1,1.062566965E1
1.465013633E1,1.676513672E-1,1.305285645E0,1.046833099E1,1.055072658E1
1.466011533E1,2.237846375E-1,1.341360626E0,1.047177383E1,1.055970526E1
1.467009433E1,2.155517578E-1,1.379231873E0,1.051069290E1,1.060299054E1
1.468007433E1,1.821711731E-1,1.350641327E0,1.053090088E1,1.061872364E1
1.469005333E1,1.279838562E-1,1.292113037E0,1.051129166E1,1.059118446E1
1.470003233E1,1.254391479E-1,1.263821869E0,1.047252228E1,1.054925133E1
1.471001133E1,1.366658020E-1,1.191522217E0,1.045919998E1,1.052773798E1
1.471999033E1,1.269360352E-1,1.115480347E0,1.043989014E1,1.050008168E1
1.472996933E1,1.347198486E-1,1.022074585E0,1.040201889E1,1.045297962E1
1.473994833E1,1.011895752E-1,9.280700684E-1,1.032986893E1,1.037196922E1
1.474992733E1,8.741821289E-2,8.677455139E-1,1.025517426E1,1.029219234E1
1.475990633E1,4.790039062E-3,7.899073792E-1,1.017763550E1,1.020824377E1
1.476988533E1,-7.185058594E-2,7.270381165E-1,1.006626709E1,1.009274393E1
1.477986433E1,-1.276844788E-1,6.861730957E-1,9.937385101E0,9.961865262E0
1.478984333E1,-1.463955688E-1,6.568341064E-1,9.789642334E0,9.812744760E0
1.479982296E1,-6.301895142E-2,6.625222778E-1,9.645641785E0,9.668573452E0
1.480980196E1,9.430389404E-2,7.441026306E-1,9.606123962E0,9.635361930E0
1.481978096E1,3.418890381E-1,8.973838806E-1,9.554331665E0,9.602470490E0
1.482975996E1,6.405180359E-1,1.010398865E0,9.504185944E0,9.579181576E0
1.483973896E1,8.569679260E-1,1.013093262E0,9.450447693E0,9.543150087E0
1.484971796E1,9.186396790E-1,9.683363342E-1,9.447154541E0,9.540980193E0
1.485969696E1,7.955955505E-1,8.680448914E-1,9.588161316E0,9.660192112E0
1.486967596E1,5.495072937E-1,7.602690125E-1,9.812844086E0,9.857579636E0
1.487965496E1,3.255729675E-1,7.396119690E-1,1.011701157E1,1.014923380E1
1.488963396E1,1.335223389E-1,8.141569519E-1,1.038749908E1,1.042021195E1
1.489961296E1,-5.254074097E-2,8.686436462E-1,1.051892578E1,1.055486153E1
1.490959196E1,-2.047741699E-1,9.310638428E-1,1.054317535E1,1.058618717E1
1.491957096E1,-2.399510193E-1,1.045276337E0,1.037717056E1,1.043244209E1
1.492954996E1,-2.673440552E-1,1.101559296E0,1.013123199E1,1.019444787E1
1.493952996E1,-2.493814087E-1,1.136885834E0,9.772727509E0,9.841793711E0
1.494950896E1,-2.423460388E-1,1.100361786E0,9.433832245E0,9.500879880E0
1.495948796E1,-2.192939758E-1,1.035696259E0,9.190288696E0,9.251062799E0
1.496946696E1,-1.311273193E-1,1.004710693E0,8.997190247E0,9.054063744E0
1.497944596E1,-7.140151978E-2,9.157955933E-1,8.906778259E0,8.954020254E0
1.498942496E1,-5.493576050E-2,7.557783508E-1,8.870703278E0,8.903010474E0
1.499940396E1,-3.023712158E-2,6.262976074E-1,8.890013123E0,8.912098310E0
1.500938296E1,7.694000244E-2,6.069877625E-1,8.964408417E0,8.985264168E0
1.501936196E1,2.694396973E-1,6.691085815E-1,9.045539703E0,9.074254381E0
1.502934096E1,4.561015320E-1,7.584727478E-1,9.056317291E0,9.099461105E0
1.503931996E1,5.424719238E-1,8.283773804E-1,8.988957367E0,9.043331212E0
1.504929896E1,5.592370605E-1,8.433462524E-1,8.815468140E0,8.873356609E0
1.505927796E1,6.867718506E-1,9.770182800E-1,8.618328094E0,8.700678102E0
1.506925796E1,7.906558228E-1,1.115630035E0,8.423134003E0,8.533402219E0
1.507923696E1,7.530839539E-1,1.221909027E0,8.189918976E0,8.314744130E0
1.508921596E1,6.053411865E-1,1.267863464E0,8.039332123E0,8.161174958E0
1.509919496E1,3.960763550E-1,1.338965607E0,8.005053406E0,8.125920588E0
1.510917396E1,2.303709412E-1,1.432970123E0,8.081544342E0,8.210836321E0
1.511915296E1,1.419049072E-1,1.527723083E0,8.236621857E0,8.378306179E0
1.512913196E1,3.592529297E-2,1.580114136E0,8.410560150E0,8.557778529E0
1.513911096E1,-1.083746338E-1,1.525926819E0,8.602461090E0,8.737421503E0
1.514908996E1,-2.004331970E-1,1.489103394E0,8.788673859E0,8.916186998E0
1.515906896E1,-2.519261169E-1,1.471889191E0,9.059460754E0,9.181707560E0
1.516904796E1,-2.948867798E-1,1.450783081E0,9.339678040E0,9.456284452E0
1.517902696E1,-2.342628479E-1,1.441951447E0,9.598489838E0,9.709022104E0
1.518900696E1,-8.307723999E-2,1.487756195E0,9.853260040E0,9.965292457E0
1.519898596E1,2.978805542E-2,1.549427948E0,1.001447479E1,1.013367257E1
1.520896496E1,1.091230774E-1,1.539398804E0,1.008048752E1,1.019793534E1
1.521894396E1,1.634600830E-1,1.584006042E0,1.007794281E1,1.020297631E1
1.522892296E1,2.674937439E-1,1.723515930E0,1.005204666E1,1.020224006E1
1.523890196E1,2.936892700E-1,1.887874146E0,9.998009033E0,1.017892464E1
1.524888096E1,1.776805115E-1,1.988614655E0,9.922565918E0,1.012143631E1
1.525885996E1,2.544708252E-3,2.023192749E0,9.862989807E0,1.006836051E1
1.526883896E1,-1.853146362E-1,2.029329987E0,9.817035370E0,1.002630067E1
1.527881796E1,-3.525169373E-1,2.032323761E0,9.791588287E0,1.000648836E1
1.528879696E1,-4.522096252E-1,2.066303101E0,9.772577820E0,9.998868901E0
1.529877596E1,-4.089495850E-1,2.110760651E0,9.811646576E0,1.004444915E1
1.530875496E1,-3.035687256E-1,2.140099640E0,9.802515564E0,1.003800238E1
1.531873396E1,-2.387535095E-1,2.083966370E0,9.736652527E0,9.960036220E0
1.532871396E1,-1.344204712E-1,1.935774536E0,9.650282135E0,9.843436250E0
1.533869296E1,1.197509766E-2,1.783990173E0,9.571545868E0,9.736388172E0
1.534867196E1,1.757345581E-1,1.641636200E0,9.523346100E0,9.665400819E0
1.535865096E1,2.794688416E-1,1.503473511E0,9.599687347E0,9.720726958E0
1.536862996E1,3.212319946E-1,1.410367126E0,9.747579803E0,9.854320750E0
1.537860896E1,3.246748352E-1,1.388063507E0,9.964179382E0,1.006563484E1
1.538858796E1,3.210823059E-1,1.402433624E0,1.027822632E1,1.037843197E1
1.539856696E1,1.472937012E-1,1.326691132E0,1.054078033E1,1.062496376E1
1.540854596E1,1.407073975E-2,1.321901093E0,1.074241104E1,1.082344749E1
1.541852496E1,-5.912704468E-2,1.388063507E0,1.097233292E1,1.105994150E1
1.542850396E1,-1.395098877E-1,1.404978333E0,1.109178452E1,1.118128395E1
1.543848296E1,-2.492317200E-1,1.325044556E0,1.111603409E1,1.119750300E1
1.544846296E1,-3.339555359E-1,1.218017120E0,1.107262436E1,1.114442023E1
1.545844196E1,-4.230203247E-1,1.008452911E0,1.089763824E1,1.095237156E1
1.546842096E1,-5.108876038E-1,6.896159363E-1,1.070109695E1,1.073545771E1
1.547839996E1,-4.330494690E-1,4.343966675E-1,1.055365356E1,1.057146328E1
1.548837896E1,-2.351609802E-1,3.308120728E-1,1.050605255E1,1.051388974E1
1.549835796E1,-4.355941772E-2,2.793191528E-1,1.050231033E1,1.050611436E1
1.550833696E1,3.622467041E-2,2.445913696E-1,1.051967422E1,1.052257967E1
1.551831596E1,6.301895142E-2,2.508782959E-1,1.047746201E1,1.048065463E1
1.552829496E1,6.930587769E-2,3.713777161E-1,1.037761963E1,1.038449392E1
1.553827396E1,6.646179199E-2,5.414241028E-1,1.020113663E1,1.021571073E1
1.554825296E1,-1.871109009E-2,6.851252747E-1,9.970615997E0,9.994144791E0
1.555823196E1,-1.639091492E-1,7.394622803E-1,9.742939453E0,9.772335435E0
1.556821096E1,-2.369572449E-1,7.743397522E-1,9.568252716E0,9.602458582E0
1.557819096E1,-2.154020691E-1,8.479866028E-1,9.499545593E0,9.539750825E0
1.558816996E1,-2.043251038E-1,8.695417786E-1,9.496551819E0,9.538466758E0
1.559814896E1,-1.601669312E-1,8.666976929E-1,9.538764038E0,9.579396521E0
1.560812796E1,-6.661148071E-2,8.958869934E-1,9.609117737E0,9.651020375E0
1.561810696E1,8.981323242E-3,9.541159058E-1,9.670490112E0,9.717448062E0
1.562808596E1,6.900650024E-2,1.056203613E0,9.654174042E0,9.712023703E0
1.563806496E1,7.484436035E-2,1.157542877E0,9.621691589E0,9.691359875E0
1.564804396E1,1.871109009E-2,1.228495331E0,9.533674622E0,9.612518019E0
1.565802296E1,-1.242416382E-1,1.260229340E0,9.395062866E0,9.480022164E0
1.566800196E1,-3.106040955E-1,1.187929688E0,9.313931580E0,9.394518259E0
1.567798096E1,-4.210743713E-1,1.129551086E0,9.229656830E0,9.308047834E0
1.568795996E1,-4.390370178E-1,1.118623810E0,9.257648621E0,9.335316316E0
1.569793896E1,-4.266128540E-1,1.089733887E0,9.348659363E0,9.421621429E0
1.570791896E1,-3.778143311E-1,1.034648438E0,9.436077576E0,9.500147424E0
1.571789796E1,-2.534230042E-1,1.009800110E0,9.499246216E0,9.556128827E0
1.572787696E1,-1.112187195E-1,1.010099487E0,9.496402130E0,9.550619037E0
1.573785596E1,3.248245239E-2,1.046922913E0,9.469757538E0,9.527508096E0
1.574783496E1,1.678010559E-1,1.123713226E0,9.397158508E0,9.465594363E0
1.575781396E1,2.136058044E-1,1.157991943E0,9.266330566E0,9.340848727E0
1.576779296E1,1.899549866E-1,1.166524200E0,9.122180328E0,9.198425710E0
1.577777196E1,1.600172424E-1,1.180594940E0,8.978928223E0,9.057624521E0
1.578775096E1,2.143542480E-1,1.211131439E0,8.914262695E0,8.998714714E0
1.579773133E1,2.760260010E-1,1.281185760E0,8.918753357E0,9.014532087E0
1.580771033E1,2.588117981E-1,1.297202454E0,8.969048767E0,9.066066045E0
1.581768933E1,2.851570129E-1,1.313967590E0,9.043893127E0,9.143294168E0
1.582766833E1,3.710783386E-1,1.411265259E0,9.153465271E0,9.269050395E0
1.583764833E1,3.743714905E-1,1.436113586E0,9.128467255E0,9.248323668E0
1.584762733E1,3.080593872E-1,1.420096893E0,9.047186279E0,9.163141129E0
1.585760633E1,3.034190369E-1,1.458117828E0,9.006470947E0,9.128783579E0
1.586758533E1,4.146377563E-1,1.604663086E0,8.948990479E0,9.101170182E0
1.587756433E1,5.261558533E-1,1.744322662E0,8.938063202E0,9.121867974E0
1.588754333E1,5.974076843E-1,1.831142120E0,8.922495575E0,9.128028522E0
1.589752233E1,6.072871399E-1,1.911524963E0,8.918453979E0,9.141200509E0
1.590750133E1,5.810916138E-1,1.968556366E0,8.924890594E0,9.157868407E0
1.591748033E1,4.602928162E-1,1.995350647E0,8.992998962E0,9.223194892E0
1.592745933E1,3.270698547E-1,2.005828857E0,9.098529510E0,9.322744411E0
1.593743833E1,2.224374390E-1,2.074985046E0,9.236692200E0,9.469504958E0
1.594741733E1,1.264869690E-1,2.125879211E0,9.407187653E0,9.645234103E0
1.595739733E1,2.380050659E-2,2.096240845E0,9.510023804E0,9.738344053E0
1.596737633E1,-8.322692871E-2,1.996248779E0,9.664053497E0,9.868427732E0
1.597735533E1,-1.112187195E-1,1.891466675E0,9.885293427E0,1.006523929E1
1.598733433E1,-1.166075134E-1,1.798060913E0,1.004082001E1,1.020121006E1
1.599731333E1,-1.040336609E-1,1.724863129E0,1.019470001E1,1.034011045E1
1.600729233E1,-2.395019531E-2,1.670526123E0,1.045515839E1,1.058780279E1
1.601727133E1,1.454974365E-1,1.709894257E0,1.069406158E1,1.083087536E1
1.602725033E1,2.345622253E-1,1.730850677E0,1.080887283E1,1.094909108E1
1.603722933E1,2.197430420E-1,1.651515656E0,1.073642349E1,1.086492432E1
1.604720833E1,1.251397705E-1,1.575024719E0,1.059002792E1,1.070724307E1
1.605718733E1,-4.715194702E-2,1.532064056E0,1.033720367E1,1.045022600E1
1.606716633E1,-2.519261169E-1,1.529219971E0,1.005324417E1,1.017200565E1
1.607714533E1,-4.079017639E-1,1.531315613E0,9.826914825E0,9.953871927E0
1.608712533E1,-4.496649170E-1,1.550026703E0,9.627080383E0,9.761427049E0
1.609710433E1,-3.516188049E-1,1.629661102E0,9.523046722E0,9.667877221E0
1.610708333E1,-1.568737793E-1,1.711391144E0,9.517059174E0,9.670981560E0
1.611706233E1,2.634521484E-2,1.731599121E0,9.594597931E0,9.749637893E0
1.612704133E1,1.727407837E-1,1.676064606E0,9.695039063E0,9.840366577E0
1.613702033E1,2.787203979E-1,1.618584137E0,9.881102142E0,1.001667007E1
1.614699933E1,3.953279114E-1,1.623224487E0,1.010907806E1,1.024619935E1
1.615697833E1,4.019142151E-1,1.603166199E0,1.030127838E1,1.043302512E1
1.616695733E1,2.414479065E-1,1.520837402E0,1.040291702E1,1.051626959E1
1.617693633E1,4.700225830E-2,1.400337982E0,1.038794815E1,1.048201424E1
1.618691533E1,-1.158590698E-1,1.323248291E0,1.032103729E1,1.040616260E1
1.619689433E1,-1.294807434E-1,1.275796967E0,1.019514908E1,1.027547993E1
1.620687433E1,5.837860107E-3,1.301842804E0,1.007824219E1,1.016197788E1
1.621685333E1,2.104623413E-1,1.357527008E0,9.986632690E0,1.008067490E1
1.622683233E1,3.733236694E-1,1.383872223E0,9.882149963E0,9.985557610E0
1.623681133E1,4.555027771E-1,1.306333466E0,9.800270233E0,9.897438383E0
1.624679033E1,5.243595886E-1,1.210382996E0,9.810598755E0,9.898880134E0
1.625676933E1,5.304968262E-1,1.230141907E0,9.887838135E0,9.978177137E0
1.626674833E1,4.516108704E-1,1.276096344E0,9.962383118E0,1.005392718E1
1.627672733E1,3.234773254E-1,1.240320740E0,9.988428955E0,1.007033992E1
1.628670633E1,2.116598511E-1,1.263971558E0,9.963131561E0,1.004521849E1
1.629668533E1,1.811233521E-1,1.315614166E0,9.871671753E0,9.960599856E0
1.630666433E1,1.327738953E-1,1.337917786E0,9.649982758E0,9.743193528E0
1.631664333E1,1.197509766E-1,1.320404205E0,9.344767456E0,9.438351888E0
1.632662233E1,1.670526123E-1,1.338366852E0,9.106463013E0,9.205802573E0
1.633660233E1,1.959425354E-1,1.351240082E0,8.990603943E0,9.093690257E0
1.634658133E1,1.654060364E-1,1.289119263E0,8.913663940E0,9.007918321E0
1.635656033E1,1.652563477E-1,1.231938171E0,8.920250244E0,9.006433575E0
1.636653933E1,2.179467773E-1,1.220262451E0,8.990454254E0,9.075505988E0
1.637651833E1,2.782713318E-1,1.210532684E0,9.074878693E0,9.159489484E0
1.638649733E1,2.583627319E-1,1.170865173E0,9.124425659E0,9.202870213E0
1.639647633E1,2.415975952E-1,1.137334900E0,9.134005737E0,9.207712033E0
1.640645533E1,3.240760803E-1,1.159638519E0,9.107061768E0,9.186313779E0
1.641643433E1,4.538562012E-1,1.223256226E0,9.072633362E0,9.165970618E0
1.642641333E1,4.998106384E-1,1.230441284E0,9.016949158E0,9.114228905E0
1.643639233E1,5.035528564E-1,1.209933929E0,8.920100555E0,9.015858224E0
1.644637133E1,4.740641785E-1,1.237776031E0,8.894803162E0,8.993016715E0
1.645635133E1,4.212240601E-1,1.274898834E0,8.857530670E0,8.958719011E0
1.646633033E1,4.008663940E-1,1.387315063E0,8.832981720E0,8.950245975E0
1.647630933E1,3.644920349E-1,1.450633392E0,8.826694794E0,8.952526608E0
1.648628833E1,3.257226562E-1,1.485510864E0,8.793613586E0,8.924151371E0
1.649626733E1,3.990701294E-1,1.583556976E0,8.797206116E0,8.947499377E0
1.650624633E1,4.647834778E-1,1.702110443E0,8.806337128E0,8.981357205E0
1.651622533E1,4.677772522E-1,1.731150055E0,8.775201874E0,8.956554248E0
1.652620433E1,4.559518433E-1,1.728755035E0,8.751251678E0,8.932015002E0
1.653618333E1,4.607418823E-1,1.762584686E0,8.790021057E0,8.976828953E0
1.654616233E1,4.935237122E-1,1.853595428E0,8.845256195E0,9.050852933E0
1.655614133E1,4.839436340E-1,1.980232086E0,8.977281647E0,9.205819155E0
1.656612033E1,3.827540588E-1,2.004182281E0,9.112749939E0,9.338386303E0
1.657610033E1,2.357597351E-1,1.980830841E0,9.305698700E0,9.517105745E0
1.658607933E1,1.249900818E-1,1.994602203E0,9.506580963E0,9.714378111E0
1.659605833E1,5.942642212E-2,2.008223877E0,9.751172333E0,9.955996008E0
1.660603733E1,2.694396973E-2,2.020947418E0,9.981393585E0,1.018396643E1
1.661601633E1,-1.227447510E-2,1.988764343E0,1.014006363E1,1.033325818E1
