"Time (s)","Acceleration x (m/s^2)","Acceleration y (m/s^2)","Acceleration z (m/s^2)","Absolute acceleration (m/s^2)"
-1.057833317E-3,-4.581971741E-1,1.764231262E0,9.846673737E0,1.001396227E1
8.922166657E-3,-2.731819153E-1,1.722019043E0,9.800569611E0,9.954453407E0
1.890116662E-2,-2.179467773E-1,1.675316162E0,9.738299103E0,9.883757102E0
2.888016659E-2,-1.654060364E-1,1.740730133E0,9.674232330E0,9.830985288E0
3.885916667E-2,-1.020877075E-1,1.801054688E0,9.528884583E0,9.698137000E0
4.883816664E-2,-6.556365967E-2,1.829345856E0,9.386680298E0,9.563502071E0
5.881716660E-2,-7.185058594E-2,1.860481110E0,9.284742279E0,9.469582444E0
6.879716669E-2,-9.385482788E-2,1.896855469E0,9.246421967E0,9.439448532E0
7.877616666E-2,-2.772235107E-1,1.861079865E0,9.223070526E0,9.413049509E0
8.875516662E-2,-4.441264343E-1,1.839075623E0,9.189240875E0,9.381982482E0
9.873416659E-2,-3.499722290E-1,1.983375549E0,9.372010803E0,9.585971293E0
1.087131667E-1,-3.112028503E-1,1.995500336E0,9.419312439E0,9.633395851E0
1.186931666E-1,-2.709365845E-1,1.951192474E0,9.353748779E0,9.558931684E0
1.286721666E-1,-2.119592285E-1,1.933529205E0,9.324559479E0,9.525275396E0
1.386511667E-1,-1.899549866E-1,1.892963562E0,9.329648895E0,9.521645995E0
1.486301667E-1,-1.466949463E-1,1.866768036E0,9.323361969E0,9.509543665E0
1.586091666E-1,-5.822891235E-2,1.844165039E0,9.368268585E0,9.548234998E0
1.685891666E-1,-1.945953369E-2,1.797162781E0,9.407786407E0,9.577923461E0
1.785681667E-1,-1.511856079E-2,1.734143829E0,9.385632477E0,9.544505246E0
1.885471666E-1,2.245330811E-2,1.710942078E0,9.391919403E0,9.546516486E0
1.985261666E-1,3.353027344E-2,1.663939819E0,9.426198120E0,9.571992008E0
2.085051667E-1,9.490264893E-2,1.634900208E0,9.476643219E0,9.617103093E0
2.184851667E-1,1.580712891E-1,1.628014526E0,9.558522949E0,9.697462493E0
2.284641666E-1,2.062710571E-1,1.589095459E0,9.597891083E0,9.730739199E0
2.384431666E-1,2.399510193E-1,1.587448883E0,9.596693573E0,9.730061561E0
2.484221667E-1,2.149530029E-1,1.583556976E0,9.587861938E0,9.720131380E0
2.584011666E-1,1.938468933E-1,1.591789856E0,9.590406647E0,9.723542112E0
2.683801666E-1,1.564247131E-1,1.611249390E0,9.590855713E0,9.726515645E0
2.783601667E-1,7.828720093E-2,1.601369934E0,9.615554352E0,9.748302419E0
2.883391667E-1,1.945953369E-3,1.584305420E0,9.658365326E0,9.787443395E0
2.983181666E-1,-4.400848389E-2,1.618135071E0,9.721533966E0,9.855380282E0
3.082971666E-1,-6.616241455E-2,1.670376434E0,9.748477936E0,9.890771303E0
3.182761667E-1,-9.834548950E-2,1.674118652E0,9.817933502E0,9.960128681E0
3.282561667E-1,-1.275347900E-1,1.689386902E0,9.843530273E0,9.988262185E0
3.382351666E-1,-1.347198486E-1,1.706750793E0,9.832004242E0,9.979952661E0
3.482141666E-1,-1.698966980E-1,1.712588654E0,9.792785797E0,9.942860678E0
3.581931667E-1,-1.499880981E-1,1.737287292E0,9.718540192E0,9.873737237E0
3.681721666E-1,-9.190887451E-2,1.757495270E0,9.663155365E0,9.822108148E0
3.781511666E-1,-6.975494385E-2,1.719174957E0,9.645043030E0,9.797310005E0
3.881311667E-1,-7.514373779E-2,1.658101959E0,9.662257233E0,9.803783123E0
3.981101667E-1,-3.397933960E-2,1.672172699E0,9.700427856E0,9.843557118E0
4.080891666E-1,-5.628295898E-2,1.662742310E0,9.761800232E0,9.902556414E0
4.180681666E-1,-5.598358154E-2,1.657054138E0,9.732610931E0,9.872825235E0
4.280471667E-1,-6.032455444E-2,1.671573944E0,9.691147156E0,9.834436013E0
4.380271666E-1,-9.145980835E-2,1.668430481E0,9.641749878E0,9.785467075E0
4.480061666E-1,-6.885681152E-2,1.651216278E0,9.551188202E0,9.693113665E0
4.579851667E-1,-3.472778320E-2,1.648521881E0,9.515412598E0,9.657220476E0
4.679641667E-1,-6.586303711E-2,1.635349274E0,9.539213104E0,9.678599684E0
4.779431666E-1,-5.598358154E-2,1.605112152E0,9.555978241E0,9.690007189E0
4.879231666E-1,-8.038284302E-2,1.625619507E0,9.602082367E0,9.739049541E0
4.979021667E-1,-1.155596924E-1,1.640588379E0,9.641600189E0,9.780865937E0
5.078811666E-1,-1.468446350E-1,1.678459625E0,9.647887115E0,9.793901973E0
5.178601666E-1,-1.936972046E-1,1.687890015E0,9.607770538E0,9.756830737E0
5.278391667E-1,-2.261796570E-1,1.694626007E0,9.591155090E0,9.742339068E0
5.378191667E-1,-2.177970886E-1,1.719923401E0,9.574240265E0,9.729935700E0
5.477981666E-1,-2.161505127E-1,1.735940094E0,9.542655945E0,9.701674677E0
5.577771666E-1,-2.104623413E-1,1.774709473E0,9.490863647E0,9.657659182E0
5.677561667E-1,-1.857637024E-1,1.817520447E0,9.421408081E0,9.596917159E0
5.777351666E-1,-1.924996948E-1,1.838925934E0,9.408534851E0,9.588494812E0
5.877141666E-1,-2.023791504E-1,1.839973755E0,9.457033997E0,9.636490687E0
5.976941667E-1,-1.697470093E-1,1.860780487E0,9.485474854E0,9.667758337E0
6.076731667E-1,-1.408570862E-1,1.838177490E0,9.521998901E0,9.698824686E0
6.176521666E-1,-1.410067749E-1,1.794169006E0,9.536369019E0,9.704702952E0
6.276311666E-1,-1.305285645E-1,1.753303986E0,9.547445984E0,9.707978028E0
6.376101667E-1,-8.038284302E-2,1.713337097E0,9.578281860E0,9.730645858E0
6.475901667E-1,1.751358032E-2,1.648521881E0,9.629774780E0,9.769876838E0
6.575691666E-1,1.074765015E-1,1.627715149E0,9.668693848E0,9.805337757E0
6.675481666E-1,1.143621826E-1,1.602417755E0,9.711504822E0,9.843482477E0
6.775271667E-1,8.921447754E-2,1.584155731E0,9.699679413E0,9.828595490E0
6.875061666E-1,4.864883423E-2,1.566642151E0,9.653874664E0,9.780287847E0
6.974861666E-1,4.864883423E-2,1.569935303E0,9.619296570E0,9.746688159E0
7.074651667E-1,3.382965088E-2,1.597028961E0,9.607471161E0,9.739360762E0
7.174441667E-1,7.619155884E-2,1.626218262E0,9.579030304E0,9.716388864E0
7.274231666E-1,6.062393188E-2,1.633553009E0,9.559570770E0,9.698327897E0
7.374021666E-1,2.215393066E-2,1.618883514E0,9.552984467E0,9.689209815E0
7.473811667E-1,-1.556762695E-2,1.645228729E0,9.526040497E0,9.667081642E0
7.573646667E-1,-8.382568359E-2,1.620380402E0,9.569150848E0,9.705735796E0
7.673436666E-1,-1.119671631E-1,1.603465576E0,9.607171783E0,9.740707786E0
7.773226666E-1,-9.999206543E-2,1.614392853E0,9.625733185E0,9.760686556E0
7.873016667E-1,-8.532257080E-2,1.665436707E0,9.626930695E0,9.770299584E0
7.972806667E-1,-9.175918579E-2,1.712588654E0,9.566456451E0,9.718974672E0
8.072606666E-1,-9.834548950E-2,1.735640717E0,9.507179718E0,9.664811779E0
8.172396666E-1,-8.217910767E-2,1.762884064E0,9.481582947E0,9.644424752E0
8.272186667E-1,-1.224453735E-1,1.758842468E0,9.463919678E0,9.626748951E0
8.371976666E-1,-2.279759216E-1,1.744771729E0,9.434281311E0,9.596971671E0
8.471766666E-1,-3.035687256E-1,1.720971222E0,9.438771973E0,9.599182896E0
8.571556667E-1,-3.367996216E-1,1.729952545E0,9.406439209E0,9.570123739E0
8.671356667E-1,-3.164419556E-1,1.708696747E0,9.444160767E0,9.602705487E0
8.771146666E-1,-2.011816406E-1,1.708247681E0,9.512418823E0,9.666679681E0
8.870936666E-1,-7.694000244E-2,1.711391144E0,9.579928436E0,9.731896437E0
8.970726667E-1,-6.795867920E-2,1.667981415E0,9.665251007E0,9.808356509E0
9.070516666E-1,-8.083190918E-2,1.596579895E0,9.721983032E0,9.852540547E0
9.170316666E-1,-7.798782349E-2,1.584904175E0,9.772577820E0,9.900569710E0
9.270106667E-1,-4.565505981E-2,1.605561218E0,9.760303345E0,9.891583927E0
9.369896667E-1,-4.894821167E-2,1.611399078E0,9.735455017E0,9.868033609E0
9.469686666E-1,-7.918533325E-2,1.573827209E0,9.695039063E0,9.822269841E0
9.569476666E-1,-7.768844604E-2,1.587448883E0,9.651180267E0,9.781171198E0
9.669276667E-1,-6.616241455E-2,1.611099701E0,9.615105286E0,9.749372768E0
9.769066666E-1,-5.733078003E-2,1.640289001E0,9.580527191E0,9.720099592E0
9.868856666E-1,-3.472778320E-2,1.677561493E0,9.563462677E0,9.709543602E0
9.968646667E-1,-6.197113037E-2,1.678160248E0,9.544901276E0,9.691501566E0
1.006843667E0,-1.118174744E-1,1.686991882E0,9.570198669E0,9.718392219E0
1.016822667E0,-1.365161133E-1,1.655108185E0,9.596244507E0,9.738887431E0
1.026802667E0,-1.019380188E-1,1.642384644E0,9.637708282E0,9.777179533E0
1.036781667E0,-9.235794067E-2,1.602118378E0,9.718689880E0,9.850291685E0
1.046760667E0,-7.589218140E-2,1.601519623E0,9.739496613E0,9.870583518E0
1.056739667E0,-4.101470947E-2,1.655108185E0,9.735455017E0,9.875229096E0
1.066718667E0,-4.565505981E-2,1.625769196E0,9.727222137E0,9.862254325E0
1.076698667E0,-9.789642334E-2,1.584305420E0,9.716294861E0,9.845099959E0
1.086677667E0,-1.416055298E-1,1.569785614E0,9.705217896E0,9.832371708E0
1.096656667E0,-2.020797729E-1,1.540746002E0,9.672735443E0,9.796761987E0
1.106635667E0,-2.450404358E-1,1.514550476E0,9.669591980E0,9.790552437E0
1.116614667E0,-1.848655701E-1,1.534608765E0,9.673334198E0,9.796049910E0
1.126594667E0,-1.811233521E-1,1.555265808E0,9.694589996E0,9.820220598E0
1.136573667E0,-1.595681763E-1,1.554068298E0,9.730365601E0,9.854978691E0
1.146552667E0,-1.124162292E-1,1.575324097E0,9.761650543E0,9.888584567E0
1.156531667E0,-1.517843628E-1,1.616787872E0,9.777816925E0,9.911747845E0
1.166510667E0,-1.727407837E-1,1.608704681E0,9.716294861E0,9.850084058E0
1.176489667E0,-1.489402771E-1,1.603315887E0,9.688602448E0,9.821497973E0
1.186469667E0,-1.478924561E-1,1.616189117E0,9.653275909E0,9.788752486E0
1.196448667E0,-1.378633118E-1,1.633852386E0,9.596992950E0,9.736054314E0
1.206427667E0,-9.699829102E-2,1.674268341E0,9.579030304E0,9.724731601E0
1.216406667E0,-9.894424438E-2,1.674867096E0,9.566606140E0,9.712616681E0
1.226385667E0,-8.981323242E-2,1.606758728E0,9.541458435E0,9.676216673E0
1.236364667E0,-3.772155762E-2,1.594184875E0,9.584119720E0,9.715873566E0
1.246344667E0,-1.152603149E-2,1.594184875E0,9.641001434E0,9.771922376E0
1.256323667E0,-1.137634277E-2,1.566791840E0,9.669142914E0,9.795268796E0
1.266302667E0,4.939727783E-3,1.587748260E0,9.695338440E0,9.824487590E0
1.276281667E0,2.589614868E-2,1.612895966E0,9.739197235E0,9.871882637E0
1.286260667E0,5.763015747E-2,1.608854370E0,9.728868713E0,9.861167277E0
1.296240667E0,4.625381470E-2,1.614692230E0,9.719737701E0,9.853053912E0
1.306219667E0,2.245330811E-3,1.628762970E0,9.681567078E0,9.817617579E0
1.316198667E0,-4.221221924E-2,1.626367950E0,9.614207153E0,9.750888871E0
1.326177667E0,-1.990859985E-2,1.632056122E0,9.560319214E0,9.698644596E0
1.336156667E0,-5.059478760E-2,1.616189117E0,9.530830536E0,9.667024247E0
1.346135667E0,-8.607101440E-2,1.566342773E0,9.494755554E0,9.623472395E0
1.356115667E0,-1.028361511E-1,1.606010284E0,9.469308472E0,9.605084447E0
1.366094667E0,-1.522334290E-1,1.621128845E0,9.418114929E0,9.557830432E0
1.376073667E0,-1.360670471E-1,1.606309662E0,9.431137848E0,9.567920677E0
1.386052667E0,-1.142124939E-1,1.624272308E0,9.448501740E0,9.587778165E0
1.396031667E0,-1.285826111E-1,1.631756744E0,9.486822052E0,9.626991026E0
1.406011667E0,-1.052311707E-1,1.657652893E0,9.529932404E0,9.673598003E0
1.415990667E0,-8.592132568E-2,1.672921143E0,9.539662170E0,9.685618305E0
1.425969667E0,-1.215472412E-1,1.678459625E0,9.561516724E0,9.708480957E0
1.435948667E0,-1.568737793E-1,1.662742310E0,9.567354584E0,9.712033520E0
1.445927667E0,-1.685494995E-1,1.689536591E0,9.620643768E0,9.769325941E0
1.455906667E0,-1.880090332E-1,1.698817291E0,9.652228088E0,9.802389232E0
1.465886667E0,-2.062710571E-1,1.692829742E0,9.632319489E0,9.782116285E0
1.475865667E0,-2.031275940E-1,1.716779938E0,9.642049255E0,9.795800530E0
1.485844667E0,-2.053729248E-1,1.711241455E0,9.631421356E0,9.784416319E0
1.495823667E0,-2.139051819E-1,1.676962738E0,9.625284119E0,9.772617552E0
1.505802667E0,-2.089654541E-1,1.689536591E0,9.614656219E0,9.764210909E0
1.515782667E0,-1.818717957E-1,1.709145813E0,9.618248749E0,9.770617470E0
1.525761667E0,-2.332150269E-1,1.693727875E0,9.648934937E0,9.799237153E0
1.535740667E0,-2.996768188E-1,1.653012543E0,9.632918243E0,9.778311232E0
1.545719667E0,-3.174897766E-1,1.664837952E0,9.691596222E0,9.838674834E0
1.555698667E0,-2.763253784E-1,1.691183167E0,9.722881165E0,9.872733885E0
1.565677667E0,-2.460882568E-1,1.698218536E0,9.725276184E0,9.875500113E0
1.575657667E0,-2.474354553E-1,1.693727875E0,9.720635834E0,9.870192472E0
1.585636667E0,-2.351609802E-1,1.676813049E0,9.688752136E0,9.835594575E0
1.595615667E0,-1.875599670E-1,1.699565735E0,9.667196960E0,9.817250099E0
1.605594667E0,-1.758842468E-1,1.709894257E0,9.630523224E0,9.782722075E0
1.615573667E0,-1.335223389E-1,1.695973206E0,9.590706024E0,9.740420698E0
1.625553667E0,-5.972579956E-2,1.711391144E0,9.580527191E0,9.732364979E0
1.635532667E0,-8.412506104E-2,1.671873322E0,9.550739136E0,9.696332063E0
1.645511667E0,-1.160087585E-1,1.658850403E0,9.506730652E0,9.651070945E0
1.655490667E0,-1.149609375E-1,1.636546783E0,9.497449951E0,9.638104428E0
1.665469667E0,-6.436614990E-2,1.627565460E0,9.447753296E0,9.587134852E0
1.675448667E0,-5.703140259E-2,1.616787872E0,9.420060883E0,9.557970634E0
1.685428667E0,-6.182144165E-2,1.609004059E0,9.398056641E0,9.534997880E0
1.695407667E0,-5.718109131E-2,1.661993866E0,9.410480804E0,9.556288100E0
1.705386667E0,-1.013392639E-1,1.699565735E0,9.448352051E0,9.600528621E0
1.715365667E0,-1.453477478E-1,1.694027252E0,9.471703491E0,9.623098322E0
1.725344667E0,-1.380130005E-1,1.684447174E0,9.495653687E0,9.644887185E0
1.735324667E0,-1.435514832E-1,1.652713165E0,9.566606140E0,9.709377986E0
1.745303667E0,-1.001417542E-1,1.664089508E0,9.608219604E0,9.751774517E0
1.755282542E0,-7.469467163E-2,1.670975189E0,9.620344391E0,9.764669148E0
1.765261542E0,-1.270857239E-1,1.633553009E0,9.638157349E0,9.776437147E0
1.775240542E0,-1.428030396E-1,1.596280518E0,9.655970306E0,9.788067570E0
1.785219542E0,-1.589694214E-1,1.597178650E0,9.670190735E0,9.802491508E0
1.795199542E0,-1.910028076E-1,1.599274292E0,9.668244781E0,9.801485474E0
1.805178542E0,-1.959425354E-1,1.609752502E0,9.621392212E0,9.757094070E0
1.815157542E0,-1.616638184E-1,1.642534332E0,9.590706024E0,9.731685171E0
1.825136542E0,-1.694476318E-1,1.648671570E0,9.588460693E0,9.730642780E0
1.835115542E0,-1.865121460E-1,1.642534332E0,9.586664429E0,9.728146827E0
1.845094542E0,-2.026785278E-1,1.665436707E0,9.601932678E0,9.747403201E0
1.855074542E0,-1.755848694E-1,1.710343323E0,9.584419098E0,9.737412067E0
1.865053542E0,-2.074685669E-1,1.704954529E0,9.568103027E0,9.721034343E0
1.875032542E0,-2.363584900E-1,1.673819275E0,9.511371002E0,9.660420003E0
1.885011542E0,-2.101629639E-1,1.652413788E0,9.508676605E0,9.653474534E0
1.894990542E0,-1.986369324E-1,1.683549042E0,9.518556061E0,9.668335094E0
1.904969542E0,-1.814227295E-1,1.684297485E0,9.485025787E0,9.635117353E0
1.914949542E0,-1.405577087E-1,1.706900482E0,9.482780457E0,9.636202100E0
1.924928542E0,-7.229965210E-2,1.757345581E0,9.462422791E0,9.624496652E0
1.934907542E0,-7.664062500E-2,1.795516205E0,9.440568237E0,9.610103062E0
1.944886542E0,-6.840774536E-2,1.815724182E0,9.399703217E0,9.573711636E0
1.954865542E0,-6.361770630E-2,1.808838501E0,9.363628235E0,9.536953269E0
1.964845542E0,-1.184037781E-1,1.744622040E0,9.372160492E0,9.533893108E0
1.974824542E0,-1.591191101E-1,1.707648926E0,9.411678314E0,9.566664645E0
1.984803542E0,-1.594184875E-1,1.674717407E0,9.488468628E0,9.636447974E0
1.994782542E0,-1.324745178E-1,1.660796356E0,9.572593689E0,9.716498545E0
2.004761542E0,-9.789642334E-2,1.627116394E0,9.623787231E0,9.760859191E0
2.014740542E0,-8.023315430E-2,1.610051880E0,9.676028595E0,9.809395179E0
2.024720542E0,-3.068618774E-2,1.603166199E0,9.694140930E0,9.825856292E0
2.034699542E0,-2.784210205E-2,1.613494720E0,9.688153381E0,9.821632061E0
2.044678542E0,-4.311035156E-2,1.589993591E0,9.710007935E0,9.839420319E0
2.054657542E0,-6.092330933E-2,1.554517365E0,9.774074707E0,9.897109288E0
2.064636542E0,-3.742218018E-2,1.569336548E0,9.794432373E0,9.919431593E0
2.074615542E0,-5.538482666E-2,1.574875031E0,9.777367859E0,9.903545885E0
2.084595542E0,-1.243913269E-1,1.569486237E0,9.768985291E0,9.895040872E0
2.094574542E0,-1.212478638E-1,1.577719116E0,9.716145172E0,9.844154390E0
2.104553542E0,-1.651066589E-1,1.599873047E0,9.659712524E0,9.792696259E0
2.114532542E0,-2.041754150E-1,1.604663086E0,9.570198669E0,9.705943220E0
2.124511542E0,-1.884580994E-1,1.632954254E0,9.521250458E0,9.662104653E0
2.134491542E0,-1.658551025E-1,1.695823517E0,9.515861664E0,9.667209966E0
2.144470542E0,-1.962419128E-1,1.720372467E0,9.505084076E0,9.661512076E0
2.154449542E0,-2.044747925E-1,1.691931610E0,9.510921936E0,9.662405424E0
2.164428542E0,-2.520758057E-1,1.718576202E0,9.540260925E0,9.697093631E0
2.174407542E0,-2.866539001E-1,1.690434723E0,9.548793182E0,9.701504587E0
2.184386542E0,-3.421884155E-1,1.638043671E0,9.575138397E0,9.720265187E0
2.194366542E0,-3.144960022E-1,1.671873322E0,9.586814117E0,9.736584260E0
2.204345542E0,-2.697390747E-1,1.694775696E0,9.605225830E0,9.757324791E0
2.214324542E0,-2.438429260E-1,1.665885773E0,9.578281860E0,9.725128183E0
2.224303542E0,-2.034269714E-1,1.682650909E0,9.575737152E0,9.724579097E0
2.234282542E0,-1.950444031E-1,1.688937836E0,9.557175751E0,9.707222139E0
2.244261542E0,-2.095642090E-1,1.639989624E0,9.575886841E0,9.717566152E0
2.254241542E0,-1.496887207E-1,1.657952271E0,9.608518982E0,9.751658806E0
2.264220542E0,-1.110690308E-1,1.684147797E0,9.648186493E0,9.794702279E0
2.274199542E0,-1.058299255E-1,1.647474060E0,9.627529449E0,9.768044536E0
2.284178542E0,-7.589218140E-2,1.615141296E0,9.616901550E0,9.751883739E0
2.294157542E0,-7.589218140E-2,1.567091217E0,9.626481628E0,9.753495940E0
2.304136542E0,-6.451583862E-2,1.524280243E0,9.620643768E0,9.740861310E0
2.314116542E0,-2.694396973E-3,1.552870789E0,9.633516998E0,9.757871935E0
2.324095542E0,2.185455322E-2,1.562600555E0,9.648036804E0,9.773781883E0
2.334074542E0,3.757186890E-2,1.579964447E0,9.610614624E0,9.739692641E0
2.344053542E0,2.903961182E-2,1.604962463E0,9.575886841E0,9.709498267E0
2.354032542E0,-7.185058594E-3,1.624871063E0,9.577533417E0,9.714391589E0
2.364012542E0,-3.652404785E-2,1.623523865E0,9.576934662E0,9.713642018E0
2.373991542E0,-8.472381592E-2,1.588646393E0,9.634564819E0,9.765030197E0
2.383970542E0,-1.136137390E-1,1.589544525E0,9.663155365E0,9.793678139E0
2.393949542E0,-1.631607056E-1,1.584155731E0,9.691895599E0,9.821863932E0
2.403928542E0,-1.758842468E-1,1.600771179E0,9.692943420E0,9.825810694E0
2.413907542E0,-1.660047913E-1,1.610500946E0,9.677675171E0,9.812169363E0
2.423887542E0,-1.580712891E-1,1.613494720E0,9.629774780E0,9.765291294E0
2.433866542E0,-1.513352966E-1,1.621128845E0,9.602980499E0,9.740030574E0
2.443845542E0,-8.981323242E-2,1.613644409E0,9.602082367E0,9.737140262E0
2.453824542E0,-9.669891357E-2,1.638343048E0,9.610914001E0,9.750035208E0
2.463803542E0,-1.200503540E-1,1.633852386E0,9.660910034E0,9.798829950E0
2.473782542E0,-1.001417542E-1,1.632355499E0,9.625433807E0,9.763379990E0
2.483762542E0,-1.655557251E-1,1.615590363E0,9.561516724E0,9.698460856E0
2.493741542E0,-1.469943237E-1,1.652264099E0,9.460925903E0,9.605243512E0
2.503720542E0,-8.397537231E-2,1.688039703E0,9.360634460E0,9.511992820E0
2.513699542E0,-1.401086426E-1,1.641037445E0,9.318272552E0,9.462707736E0
2.523678542E0,-1.255888367E-1,1.581161957E0,9.349707184E0,9.483294265E0
2.533657542E0,-8.861572266E-2,1.597478027E0,9.521699524E0,9.655182578E0
2.543637542E0,-3.263214111E-2,1.616787872E0,9.660161591E0,9.794579615E0
2.553616542E0,2.095642090E-3,1.642234955E0,9.746681671E0,9.884065137E0
2.563595542E0,-4.385879517E-2,1.636846161E0,9.787995758E0,9.924013800E0
2.573574542E0,-1.230441284E-1,1.625320129E0,9.788744202E0,9.923523488E0
2.583553542E0,-1.865121460E-1,1.592687988E0,9.741442566E0,9.872545015E0
2.593532542E0,-1.751358032E-1,1.603166199E0,9.714498596E0,9.847451314E0
2.603512542E0,-9.595046997E-2,1.657054138E0,9.651479645E0,9.793165691E0
2.613491542E0,-7.978408813E-2,1.671274567E0,9.615254974E0,9.759746534E0
2.623470542E0,-1.082249451E-1,1.650767212E0,9.601782990E0,9.743253133E0
2.633449542E0,-1.191522217E-1,1.653461609E0,9.578431549E0,9.720827305E0
2.643428542E0,-1.456471252E-1,1.612746277E0,9.593999176E0,9.729695978E0
2.653408542E0,-9.475296021E-2,1.621877289E0,9.636361084E0,9.772354834E0
2.663387542E0,-6.810836792E-2,1.658251648E0,9.675429840E0,9.816739778E0
2.673366542E0,-8.158035278E-2,1.624871063E0,9.661957855E0,9.797973817E0
2.683345542E0,-1.149609375E-1,1.611099701E0,9.657916260E0,9.792048036E0
2.693324542E0,-1.236428833E-1,1.630559235E0,9.658365326E0,9.795817054E0
2.703303542E0,-1.242416382E-1,1.623972931E0,9.669891357E0,9.806096213E0
2.713283542E0,-1.261875916E-1,1.618135071E0,9.659562836E0,9.794970066E0
2.723262542E0,-8.562194824E-2,1.634451141E0,9.642198944E0,9.780120762E0
2.733241542E0,-4.775070190E-2,1.652413788E0,9.606423340E0,9.747621291E0
2.743220542E0,-4.655319214E-2,1.647174683E0,9.516610107E0,9.658220311E0
2.753199542E0,-8.367599487E-2,1.607656860E0,9.478140106E0,9.613880701E0
2.763175333E0,-6.496490479E-2,1.604363708E0,9.478289795E0,9.613333490E0
2.773155333E0,-2.335144043E-2,1.656156006E0,9.474547577E0,9.618235274E0
2.783134333E0,-8.158035278E-2,1.621577911E0,9.461374969E0,9.599676379E0
2.793113333E0,-1.121168518E-1,1.609902191E0,9.436227264E0,9.573230397E0
2.803092333E0,-8.592132568E-2,1.644629974E0,9.459728394E0,9.602012888E0
2.813071333E0,-5.358856201E-2,1.663341064E0,9.503437500E0,9.648051593E0
2.823050333E0,-2.589614868E-2,1.653461609E0,9.486223297E0,9.629280261E0
2.833030333E0,-6.855743408E-2,1.639690247E0,9.513616333E0,9.654127612E0
2.843009333E0,-1.038839722E-1,1.618284760E0,9.551337891E0,9.688018009E0
2.852988333E0,-1.246907043E-1,1.598525848E0,9.579329681E0,9.712589243E0
2.862967333E0,-9.220825195E-2,1.583856354E0,9.624685364E0,9.754571834E0
2.872946333E0,-3.876937866E-2,1.592238922E0,9.646539917E0,9.777139675E0
2.882925333E0,-1.437011719E-2,1.585053864E0,9.681716766E0,9.810618828E0
2.892905333E0,-3.682342529E-2,1.581161957E0,9.713750153E0,9.841665059E0
2.902884333E0,-2.365081787E-2,1.599723358E0,9.701026611E0,9.832069543E0
2.912863333E0,-4.775070190E-2,1.618284760E0,9.686057739E0,9.820429737E0
2.922842333E0,-9.071136475E-2,1.616189117E0,9.636510773E0,9.771521667E0
2.932821333E0,-1.278341675E-1,1.597627716E0,9.618099060E0,9.750722303E0
2.942800333E0,-1.712438965E-1,1.550625458E0,9.599687347E0,9.725623936E0
2.952780333E0,-1.225950623E-1,1.582808533E0,9.623936920E0,9.753997860E0
2.962759333E0,-5.239105225E-2,1.655257874E0,9.662556610E0,9.803449581E0
2.972738333E0,-3.233276367E-2,1.705104218E0,9.663454742E0,9.812786727E0
2.982717333E0,-2.888992310E-2,1.717977448E0,9.665251007E0,9.816789606E0
2.992696333E0,-5.882766724E-2,1.715283051E0,9.667646027E0,9.818810332E0
3.002675333E0,-1.350192261E-1,1.698817291E0,9.667346649E0,9.816404719E0
3.012655333E0,-1.829196167E-1,1.648372192E0,9.706714783E0,9.847380481E0
3.022634333E0,-1.851649475E-1,1.613943787E0,9.750423889E0,9.884830126E0
3.032613333E0,-1.636097717E-1,1.619482269E0,9.770631866E0,9.905288388E0
3.042592333E0,-1.067280579E-1,1.637145538E0,9.770631866E0,9.907415579E0
3.052571333E0,-9.400451660E-2,1.625020752E0,9.719887390E0,9.855239224E0
3.062550333E0,-8.307723999E-2,1.579216003E0,9.699978790E0,9.828042203E0
3.072530333E0,-1.243913269E-1,1.567839661E0,9.650731201E0,9.778047204E0
3.082509333E0,-1.646575928E-1,1.560654602E0,9.647737427E0,9.774537962E0
3.092488333E0,-1.579216003E-1,1.580712891E0,9.670639801E0,9.800248295E0
3.102467333E0,-1.339714050E-1,1.582359467E0,9.676178284E0,9.805622673E0
3.112446333E0,-1.258882141E-1,1.625619507E0,9.647587738E0,9.784397569E0
3.122425333E0,-1.116677856E-1,1.642684021E0,9.589059448E0,9.729385468E0
3.132405333E0,-1.029858398E-1,1.654659119E0,9.534273376E0,9.677338048E0
3.142384333E0,-1.122665405E-1,1.691931610E0,9.468709717E0,9.619339897E0
3.152363333E0,-1.381626892E-1,1.681004333E0,9.413025513E0,9.562944829E0
3.162342333E0,-1.483415222E-1,1.658700714E0,9.385333099E0,9.531934256E0
3.172321333E0,-1.125659180E-1,1.688039703E0,9.374555511E0,9.525987621E0
3.182300333E0,-7.050338745E-2,1.712139587E0,9.388925629E0,9.544019968E0
3.192280333E0,-5.733078003E-2,1.703008575E0,9.417965240E0,9.570872181E0
3.202259333E0,-4.879852295E-2,1.672921143E0,9.470206604E0,9.616956877E0
3.212238333E0,-5.478607178E-2,1.617985382E0,9.540560303E0,9.676940069E0
3.222217333E0,-4.775070190E-2,1.601070557E0,9.619146881E0,9.751599550E0
3.232196333E0,-3.532653809E-2,1.578766937E0,9.669442291E0,9.797543939E0
3.242175333E0,1.152603149E-2,1.594633942E0,9.687554626E0,9.817927729E0
3.252155333E0,3.248245239E-2,1.563348999E0,9.686806183E0,9.812203077E0
3.262134333E0,3.936813354E-2,1.571581879E0,9.677226105E0,9.804087134E0
3.272113333E0,5.987548828E-4,1.525028687E0,9.661508789E0,9.781127999E0
3.282092333E0,-4.026626587E-2,1.496438141E0,9.669142914E0,9.784338157E0
3.292071333E0,-6.885681152E-2,1.494941254E0,9.686207428E0,9.801132840E0
3.302050333E0,-3.382965088E-2,1.539398804E0,9.673184509E0,9.794967671E0
3.312030333E0,5.059478760E-2,1.563049622E0,9.619446259E0,9.745739083E0
3.322009333E0,5.957611084E-2,1.568438416E0,9.567653961E0,9.695542826E0
3.331988333E0,1.481918335E-2,1.568887482E0,9.525591431E0,9.653938038E0
3.341967333E0,4.340972900E-3,1.605561218E0,9.555678864E0,9.689625597E0
3.351946333E0,-3.562591553E-2,1.637145538E0,9.572893066E0,9.711940917E0
3.361925333E0,-6.735992432E-2,1.636696472E0,9.585915985E0,9.724870075E0
3.371905333E0,-9.505233765E-2,1.626667328E0,9.565109253E0,9.702906604E0
3.381884333E0,-1.031355286E-1,1.627864838E0,9.541159058E0,9.679581449E0
3.391863333E0,-8.307723999E-2,1.661694489E0,9.493558044E0,9.638245418E0
3.401842333E0,-6.676116943E-2,1.680405579E0,9.460925903E0,9.609231963E0
3.411821333E0,-4.221221924E-2,1.713486786E0,9.428144073E0,9.582678097E0
3.421800333E0,-2.694396973E-3,1.715582428E0,9.427695007E0,9.582518640E0
3.431780333E0,-1.706451416E-2,1.688788147E0,9.420809326E0,9.570994983E0
3.441759333E0,-3.293151855E-3,1.677860870E0,9.452992401E0,9.600744413E0
3.451738333E0,-4.191284180E-2,1.616638184E0,9.488318939E0,9.625147895E0
3.461717333E0,-9.654922485E-2,1.548080750E0,9.598040771E0,9.722564601E0
3.471696333E0,-2.124082947E-1,1.494791565E0,9.684411163E0,9.801394732E0
3.481675333E0,-3.010240173E-1,1.436113586E0,9.780062256E0,9.889522507E0
3.491655333E0,-2.987786865E-1,1.449884949E0,9.842332764E0,9.953037190E0
3.501634333E0,-2.567161560E-1,1.457219696E0,9.871222687E0,9.981504384E0
3.511613333E0,-1.963916016E-1,1.472937012E0,9.837542725E0,9.949138654E0
3.521592333E0,-1.468446350E-1,1.513652344E0,9.792187042E0,9.909572838E0
3.531571333E0,-1.073268127E-1,1.532213745E0,9.796827393E0,9.916502658E0
3.541550333E0,-3.996688843E-2,1.585203552E0,9.733808441E0,9.862124235E0
3.551530333E0,-1.841171265E-2,1.636546783E0,9.705068207E0,9.842102075E0
3.561509333E0,-1.541793823E-2,1.673220520E0,9.646539917E0,9.790589206E0
3.571488333E0,-1.571731567E-2,1.706002350E0,9.587562561E0,9.738174722E0
3.581467333E0,-5.613327026E-2,1.680405579E0,9.530231781E0,9.677408313E0
3.591446333E0,-8.936416626E-2,1.619781647E0,9.499844971E0,9.637361309E0
3.601425333E0,-1.347198486E-2,1.579964447E0,9.552385712E0,9.682176508E0
3.611405333E0,2.095642090E-2,1.574875031E0,9.651030579E0,9.778704503E0
3.621384333E0,3.847000122E-2,1.574126587E0,9.687255249E0,9.814390899E0
3.631363333E0,4.984634399E-2,1.580862579E0,9.677675171E0,9.806069950E0
3.641342333E0,3.532653809E-2,1.573378143E0,9.621392212E0,9.749254066E0
3.651321333E0,2.829116821E-2,1.574126587E0,9.537566528E0,9.666635929E0
3.661300333E0,-1.347198486E-2,1.589245148E0,9.463769989E0,9.596292203E0
3.671280333E0,-4.415817261E-2,1.583706665E0,9.457483063E0,9.589268097E0
3.681259333E0,-4.610412598E-2,1.578766937E0,9.481283569E0,9.611938866E0
3.691238333E0,-2.724334717E-2,1.553918610E0,9.485325165E0,9.611805175E0
3.701217333E0,-1.242416382E-2,1.543141022E0,9.492659912E0,9.617277722E0
3.711196333E0,9.879455566E-3,1.537752228E0,9.507179718E0,9.630744816E0
3.721175333E0,-7.334747314E-3,1.550326080E0,9.541757812E0,9.666887136E0
3.731155333E0,-6.616241455E-2,1.545835419E0,9.542206879E0,9.666834886E0
3.741134333E0,-9.879455566E-2,1.545086975E0,9.535171509E0,9.660049163E0
3.751113333E0,-1.245410156E-1,1.524579620E0,9.588460693E0,9.709708129E0
3.761092542E0,-1.338217163E-1,1.511556702E0,9.626331940E0,9.745202847E0
3.771071542E0,-1.407073975E-1,1.499282227E0,9.665700073E0,9.782300531E0
3.781050542E0,-1.713935852E-1,1.507814484E0,9.717492371E0,9.835270116E0
3.791030542E0,-1.679507446E-1,1.525926819E0,9.749974823E0,9.870089623E0
3.801009542E0,-1.556762695E-1,1.519340515E0,9.769883423E0,9.888541490E0
3.810988542E0,-1.703457642E-1,1.509011993E0,9.823471985E0,9.940157781E0
3.820967542E0,-1.299298096E-1,1.530716858E0,9.861492920E0,9.980431777E0
3.830946542E0,-8.786727905E-2,1.538949738E0,9.900711365E0,1.001998865E1
3.840925542E0,-5.313949585E-2,1.533560944E0,9.876611481E0,9.995103167E0
3.850905542E0,-4.819976807E-2,1.493893433E0,9.835746460E0,9.948665701E0
3.860884542E0,-4.775070190E-2,1.503922577E0,9.766889648E0,9.882114989E0
3.870863542E0,-2.305206299E-2,1.528321838E0,9.726174316E0,9.845545484E0
3.880842542E0,-1.691482544E-2,1.544637909E0,9.654623108E0,9.777419892E0
3.890821542E0,-1.781295776E-2,1.562151489E0,9.582473145E0,9.708986875E0
3.900800542E0,-1.826202393E-2,1.530118103E0,9.512269135E0,9.634565844E0
3.910780542E0,1.287322998E-2,1.491498413E0,9.497899017E0,9.614302834E0
3.920759542E0,3.966751099E-2,1.482217712E0,9.525890808E0,9.640598454E0
3.930738542E0,3.981719971E-2,1.509461060E0,9.543853455E0,9.662566784E0
3.940717542E0,1.661544800E-2,1.546583862E0,9.549242249E0,9.673687262E0
3.950696542E0,-1.152603149E-2,1.556313629E0,9.541009369E0,9.667114603E0
3.960675542E0,1.347198486E-2,1.564396820E0,9.481882324E0,9.610078632E0
3.970654542E0,4.535568237E-2,1.593286743E0,9.513466644E0,9.646070048E0
3.980634542E0,3.981719971E-2,1.582359467E0,9.524393921E0,9.655025968E0
3.990613542E0,1.556762695E-2,1.596729584E0,9.528884583E0,9.661750830E0
4.000592542E0,-3.817062378E-2,1.590592346E0,9.535919952E0,9.667740705E0
4.010571542E0,-7.813751221E-2,1.586251373E0,9.551786957E0,9.682919650E0
4.020550542E0,-4.894821167E-2,1.557361450E0,9.568402405E0,9.694436301E0
4.030529542E0,-4.400848389E-2,1.521136780E0,9.585616608E0,9.705660184E0
4.040509542E0,-2.365081787E-2,1.527274017E0,9.599238281E0,9.720005189E0
4.050488542E0,-5.388793945E-3,1.543590088E0,9.611662445E0,9.734821742E0
4.060467542E0,-2.200424194E-2,1.510808258E0,9.630672913E0,9.748481242E0
4.070446542E0,1.646575928E-3,1.483564911E0,9.651329956E0,9.764688294E0
4.080425542E0,6.286926270E-3,1.505419464E0,9.661808167E0,9.778387614E0
4.090404542E0,4.116439819E-2,1.491498413E0,9.671837311E0,9.786250507E0
4.100384542E0,4.116439819E-2,1.485660553E0,9.687854004E0,9.801193651E0
4.110363542E0,-1.182540894E-2,1.498234406E0,9.687854004E0,9.803028174E0
4.120342542E0,-5.688171387E-2,1.488055573E0,9.656718750E0,9.770862906E0
4.130321542E0,-5.523513794E-2,1.513802032E0,9.642348633E0,9.760611388E0
4.140300542E0,-4.580474854E-2,1.538650360E0,9.630223846E0,9.752474267E0
4.150279542E0,-4.625381470E-2,1.540895691E0,9.607920227E0,9.730808293E0
4.160259542E0,-9.400451660E-2,1.512903900E0,9.624685364E0,9.743319938E0
4.170238542E0,-1.176553345E-1,1.502126312E0,9.627828827E0,9.745014836E0
4.180217542E0,-1.121168518E-1,1.526974640E0,9.638905792E0,9.759750335E0
4.190196542E0,-8.891510010E-2,1.555714874E0,9.669442291E0,9.794195673E0
4.200175542E0,-6.167175293E-2,1.567091217E0,9.641001434E0,9.767726805E0
4.210154542E0,-2.320175171E-2,1.558409271E0,9.595795441E0,9.721546581E0
4.220134542E0,-4.939727783E-3,1.580563202E0,9.576036530E0,9.705600448E0
4.230113542E0,-2.230361938E-2,1.576072540E0,9.534423065E0,9.663835951E0
4.240092542E0,-4.340972900E-2,1.562301178E0,9.557026062E0,9.683977309E0
4.250071542E0,-5.493576050E-2,1.540596313E0,9.571845245E0,9.695188309E0
4.260050542E0,-4.580474854E-2,1.500330048E0,9.584419098E0,9.701246197E0
4.270029542E0,8.831634521E-3,1.535656586E0,9.575587463E0,9.697947949E0
4.280008542E0,4.535568237E-2,1.566492462E0,9.568552094E0,9.696037590E0
4.289988542E0,3.487747192E-2,1.519939270E0,9.520502014E0,9.641130142E0
4.299967542E0,4.640350342E-2,1.528172150E0,9.564510498E0,9.685934362E0
4.309946542E0,5.897735596E-2,1.588047638E0,9.619595947E0,9.749974350E0
4.319925542E0,5.403762817E-2,1.563049622E0,9.648635559E0,9.774569675E0
4.329904542E0,2.275268555E-2,1.530267792E0,9.671687622E0,9.792026279E0
4.339883542E0,-1.616638184E-2,1.478176117E0,9.705966339E0,9.817894304E0
4.349863542E0,8.083190918E-3,1.462608490E0,9.707463226E0,9.817032710E0
4.359842542E0,2.724334717E-2,1.438508606E0,9.739795990E0,9.845490091E0
4.369821542E0,-2.095642090E-3,1.396745453E0,9.684710541E0,9.784912903E0
4.379800542E0,1.766326904E-2,1.407822418E0,9.656718750E0,9.758816166E0
4.389779542E0,5.628295898E-2,1.460063782E0,9.653425598E0,9.763379527E0
4.399758542E0,3.996688843E-2,1.462758179E0,9.648785248E0,9.759114489E0
4.409738542E0,3.203338623E-2,1.440304871E0,9.669442291E0,9.776176066E0
4.419717542E0,8.083190918E-3,1.459315338E0,9.684860229E0,9.794191353E0
4.429696542E0,5.987548828E-4,1.472487946E0,9.676327972E0,9.787724155E0
4.439675542E0,-3.173400879E-2,1.488654327E0,9.623338165E0,9.737850697E0
4.449654542E0,-4.101470947E-2,1.498982849E0,9.582473145E0,9.699093945E0
4.459633542E0,-4.221221924E-2,1.516496429E0,9.552834778E0,9.672548557E0
4.469613542E0,-1.871109009E-2,1.512305145E0,9.532477112E0,9.651711602E0
4.479592542E0,-7.933502197E-2,1.537901917E0,9.524842987E0,9.648526845E0
4.489571542E0,-2.073188782E-1,1.553469543E0,9.520502014E0,9.648637590E0
4.499550542E0,-2.501298523E-1,1.558109894E0,9.516909485E0,9.646856355E0
4.509529542E0,-2.311193848E-1,1.585353241E0,9.589508514E0,9.722419175E0
4.519508542E0,-1.673519897E-1,1.593137054E0,9.642498322E0,9.774654277E0
4.529488542E0,-1.432521057E-1,1.575324097E0,9.694440308E0,9.822644250E0
4.539467542E0,-1.392105103E-1,1.547481995E0,9.750124512E0,9.873145805E0
4.549446542E0,-1.158590698E-1,1.567091217E0,9.745633850E0,9.871503297E0
4.559425542E0,-1.386117554E-1,1.556014252E0,9.765692139E0,9.889850177E0
4.569404542E0,-1.381626892E-1,1.518442383E0,9.751172333E0,9.869656431E0
4.579383542E0,-1.329235840E-1,1.484912109E0,9.724976807E0,9.838587629E0
4.589362542E0,-1.251397705E-1,1.469943237E0,9.743837585E0,9.854885285E0
4.599342542E0,-8.861572266E-2,1.447489929E0,9.747729492E0,9.855014464E0
4.609321542E0,-6.212081909E-2,1.440304871E0,9.746831360E0,9.852870580E0
4.619300542E0,-2.469863892E-2,1.447340240E0,9.723779297E0,9.830935236E0
4.629279542E0,-2.380050659E-2,1.465751953E0,9.710307312E0,9.820339268E0
4.639258542E0,-4.415817261E-2,1.481319580E0,9.668843536E0,9.781758174E0
4.649237542E0,-7.768844604E-2,1.491049347E0,9.623787231E0,9.738919053E0
4.659217542E0,-7.229965210E-2,1.504521332E0,9.587412872E0,9.705014027E0
4.669196542E0,-5.867797852E-2,1.508562927E0,9.572743378E0,9.691058817E0
4.679175542E0,-2.709365845E-2,1.535207520E0,9.562863922E0,9.685347830E0
4.689154542E0,-4.041595459E-3,1.544488220E0,9.575138397E0,9.698903831E0
4.699133542E0,-2.799179077E-2,1.525028687E0,9.580976257E0,9.701628836E0
4.709112542E0,-3.188369751E-2,1.508712616E0,9.571994934E0,9.690217611E0
4.719092542E0,-2.245330811E-2,1.526226196E0,9.596394196E0,9.717028975E0
4.729071542E0,-4.236190796E-2,1.498084717E0,9.623787231E0,9.739780954E0
4.739050542E0,-4.071533203E-2,1.485510864E0,9.648336182E0,9.762109984E0
4.749029542E0,4.790039062E-3,1.502126312E0,9.643246765E0,9.759539670E0
4.759009542E0,1.242416382E-2,1.481618958E0,9.633966064E0,9.747238133E0
4.768988542E0,3.427871704E-2,1.464255066E0,9.612560577E0,9.723504450E0
4.778967542E0,2.814147949E-2,1.487905884E0,9.584868164E0,9.699708943E0
4.788947542E0,1.945953369E-2,1.491797791E0,9.583371277E0,9.698806336E0
4.798926542E0,-5.837860107E-3,1.486408997E0,9.612710266E0,9.726954531E0
4.808905542E0,-2.903961182E-2,1.506467285E0,9.633816376E0,9.750933542E0
4.818884542E0,-3.996688843E-2,1.477577362E0,9.634864197E0,9.747586383E0
4.828863542E0,-5.149291992E-2,1.478026428E0,9.632918243E0,9.745785116E0
4.838842542E0,-5.254074097E-2,1.465751953E0,9.667346649E0,9.777974256E0
4.848822542E0,-6.646179199E-2,1.484612732E0,9.685159607E0,9.798510537E0
4.858801542E0,-8.457412720E-2,1.491797791E0,9.676777039E0,9.791456852E0
4.868780542E0,-9.475296021E-2,1.545985107E0,9.670041046E0,9.793300869E0
4.878759542E0,-1.327738953E-1,1.523232422E0,9.636959839E0,9.757502798E0
4.888738542E0,-1.266366577E-1,1.557062073E0,9.625583496E0,9.751529971E0
4.898717542E0,-1.240919495E-1,1.566342773E0,9.608069916E0,9.735699051E0
4.908697542E0,-1.092727661E-1,1.531764679E0,9.573491821E0,9.695874856E0
4.918676542E0,-8.966354370E-2,1.550924835E0,9.589957581E0,9.714972660E0
4.928655542E0,-7.005432129E-2,1.593436432E0,9.546248474E0,9.678574647E0
4.938634542E0,-8.173004150E-2,1.596430206E0,9.515562286E0,9.648896042E0
4.948613542E0,-7.185058594E-2,1.584455109E0,9.523795166E0,9.654964260E0
4.958592542E0,-5.523513794E-2,1.601220245E0,9.535470886E0,9.669134512E0
4.968572542E0,-8.696914673E-2,1.564247131E0,9.589209137E0,9.716345228E0
4.978551542E0,-8.652008057E-2,1.531614990E0,9.622889099E0,9.744399664E0
4.988530542E0,-1.047821045E-1,1.513951721E0,9.680070190E0,9.798305363E0
4.998509542E0,-8.891510010E-2,1.474433899E0,9.725575562E0,9.837107360E0
5.008488542E0,-6.346801758E-2,1.459914093E0,9.723479919E0,9.832672022E0
5.018467542E0,-3.397933960E-2,1.474284210E0,9.679621124E0,9.791309087E0
5.028446542E0,-2.469863892E-2,1.460213470E0,9.645492096E0,9.755426755E0
5.038426542E0,-5.134323120E-2,1.473386078E0,9.614805908E0,9.727178178E0
5.048405542E0,-5.313949585E-2,1.510658569E0,9.578132172E0,9.696676184E0
5.058384542E0,-6.286926270E-2,1.537303162E0,9.564510498E0,9.687472045E0
5.068363542E0,-4.370910645E-2,1.564247131E0,9.555678864E0,9.682963292E0
5.078342542E0,-4.849914551E-2,1.556613007E0,9.551487579E0,9.677619087E0
5.088321542E0,-7.244934082E-2,1.553619232E0,9.549691315E0,9.675514758E0
5.098301542E0,-3.921844482E-2,1.579515381E0,9.542805634E0,9.672721762E0
5.108280542E0,-2.574645996E-2,1.624871063E0,9.556277618E0,9.693467428E0
5.118259542E0,-4.520599365E-2,1.606010284E0,9.558972015E0,9.693052079E0
5.128238542E0,-1.242416382E-2,1.581910400E0,9.613608398E0,9.742897994E0
5.138217542E0,-1.092727661E-2,1.594933319E0,9.643546143E0,9.774554409E0
5.148196542E0,8.232879639E-3,1.577569427E0,9.667945404E0,9.795813464E0
5.158175542E0,4.640350342E-3,1.527723083E0,9.701026611E0,9.820584334E0
5.168155542E0,-1.182540894E-2,1.489253082E0,9.680668945E0,9.794557969E0
5.178134542E0,-3.113525391E-2,1.503922577E0,9.676926727E0,9.793143694E0
5.188113542E0,1.496887207E-4,1.503922577E0,9.670939178E0,9.787177721E0
5.198092542E0,2.185455322E-2,1.508862305E0,9.624086609E0,9.741672656E0
5.208071542E0,2.619552612E-2,1.485061798E0,9.569001160E0,9.683588072E0
5.218050542E0,7.634124756E-3,1.475481720E0,9.529483337E0,9.643036724E0
5.228030542E0,3.353027344E-2,1.515897675E0,9.528884583E0,9.648767353E0
5.238009542E0,2.140548706E-2,1.541045380E0,9.553583221E0,9.677098296E0
5.247988542E0,5.733078003E-2,1.536255341E0,9.567354584E0,9.690079516E0
5.257967542E0,4.251159668E-2,1.536105652E0,9.614656219E0,9.736685372E0
5.267946542E0,6.721023560E-2,1.529669037E0,9.625433807E0,9.746454769E0
5.277925542E0,6.137237549E-2,1.516945496E0,9.671687622E0,9.790119083E0
5.287905542E0,1.496887207E-2,1.530866547E0,9.700876923E0,9.820936285E0
5.297884542E0,-3.263214111E-2,1.522334290E0,9.647138672E0,9.766568031E0
5.307863542E0,-2.918930054E-2,1.504371643E0,9.597142639E0,9.714377638E0
5.317842542E0,-7.484436035E-3,1.519340515E0,9.571845245E0,9.691680609E0
5.327821542E0,-1.032852173E-2,1.537153473E0,9.538464661E0,9.661534845E0
5.337800542E0,-5.044509888E-2,1.515298920E0,9.535470886E0,9.655251449E0
5.347779542E0,-8.846603394E-2,1.512454834E0,9.547296295E0,9.666758113E0
5.357759542E0,-1.297801208E-1,1.509311371E0,9.582622833E0,9.701624815E0
5.367738542E0,-1.377136230E-1,1.539249115E0,9.608968048E0,9.732446755E0
5.377717542E0,-1.451980591E-1,1.554667053E0,9.620943146E0,9.746826106E0
5.387696542E0,-1.999841309E-1,1.521136780E0,9.598340149E0,9.720184379E0
5.397675542E0,-2.490820312E-1,1.496438141E0,9.574090576E0,9.693532861E0
5.407654542E0,-8.936416626E-2,1.575773163E0,9.568103027E0,9.697403908E0
5.417634542E0,1.323248291E-1,1.661095734E0,9.549391937E0,9.693690488E0
5.427613542E0,8.861572266E-2,1.617985382E0,9.590706024E0,9.726632073E0
5.437592542E0,5.463638306E-2,1.536405029E0,9.530980225E0,9.654175759E0
5.447571542E0,2.694396973E-2,1.488953705E0,9.554930420E0,9.670284610E0
5.457550542E0,3.008743286E-2,1.435065765E0,9.589658203E0,9.696487171E0
5.467529542E0,5.658233643E-2,1.418749695E0,9.599238281E0,9.703681149E0
5.477509542E0,6.840774536E-2,1.384770355E0,9.646988983E0,9.746110250E0
5.487488542E0,1.218466187E-1,1.393152924E0,9.654772797E0,9.755529684E0
5.497467542E0,1.571731567E-1,1.395547943E0,9.674681396E0,9.776078845E0
5.507446542E0,2.047741699E-1,1.420845337E0,9.684261475E0,9.790079379E0
5.517425542E0,1.779798889E-1,1.430874481E0,9.643845520E0,9.751042767E0
5.527404542E0,8.113128662E-2,1.409918060E0,9.587412872E0,9.690868733E0
5.537383542E0,2.874023438E-2,1.393601990E0,9.560618591E0,9.661696557E0
5.547363542E0,2.095642090E-2,1.406175842E0,9.613758087E0,9.716075042E0
5.557342542E0,6.631210327E-2,1.471889191E0,9.651479645E0,9.763294240E0
5.567321542E0,6.436614990E-2,1.484463043E0,9.671987000E0,9.785453799E0
5.577300542E0,2.948867798E-2,1.523382111E0,9.620943146E0,9.740847481E0
5.587279542E0,-1.170565796E-1,1.528471527E0,9.663754120E0,9.784583340E0
5.597258542E0,-2.136058044E-1,1.481768646E0,9.624984741E0,9.740718507E0
5.607238542E0,-2.803669739E-1,1.487007751E0,9.640252991E0,9.758292649E0
5.617217542E0,-2.743794250E-1,1.509910126E0,9.671537933E0,9.792535864E0
5.627196542E0,-2.386038208E-1,1.514849854E0,9.673783264E0,9.794579343E0
5.637175542E0,-2.204914856E-1,1.470991058E0,9.705816650E0,9.819129699E0
5.647154542E0,-2.158511353E-1,1.451681213E0,9.727072449E0,9.837169739E0
5.657133542E0,-1.273851013E-1,1.500180359E0,9.723629608E0,9.839499013E0
5.667112542E0,-8.951385498E-2,1.504521332E0,9.687704315E0,9.804244594E0
5.677092542E0,-8.232879639E-2,1.485959930E0,9.669292603E0,9.783152579E0
5.687071542E0,-4.430786133E-2,1.497485962E0,9.632020111E0,9.747832519E0
5.697050542E0,-4.071533203E-2,1.498683472E0,9.590107269E0,9.706588861E0
5.707029542E0,-4.535568237E-2,1.476679230E0,9.575138397E0,9.688442290E0
5.717008542E0,1.556762695E-2,1.471290436E0,9.569450226E0,9.681906606E0
5.726987542E0,3.652404785E-2,1.484013977E0,9.592651978E0,9.706832823E0
5.736967542E0,9.879455566E-3,1.465153198E0,9.555080109E0,9.666764059E0
5.746946542E0,-1.856140137E-2,1.420995026E0,9.538314972E0,9.643600152E0
5.756924417E0,-1.047821045E-2,1.392254791E0,9.569899292E0,9.670649185E0
5.766903417E0,-4.340972900E-3,1.415755920E0,9.643995209E0,9.747360015E0
5.776882417E0,2.649490356E-2,1.440903625E0,9.685309296E0,9.791941656E0
5.786861417E0,3.143463135E-2,1.460961914E0,9.696236572E0,9.805733094E0
5.796840417E0,-1.047821045E-3,1.451681213E0,9.681118011E0,9.789352655E0
5.806820417E0,-4.790039063E-2,1.443148956E0,9.635462952E0,9.743054944E0
5.816799417E0,-5.104385376E-2,1.462458801E0,9.596394196E0,9.707325727E0
5.826778417E0,-4.894821167E-2,1.468446350E0,9.602830811E0,9.714581318E0
5.836757417E0,-4.505630493E-2,1.452729034E0,9.596693573E0,9.706131014E0
5.846736417E0,-3.547622681E-2,1.454076233E0,9.584718475E0,9.694453286E0
5.856715417E0,-4.146377563E-2,1.448088684E0,9.591753845E0,9.700537197E0
5.866695417E0,-4.071533203E-2,1.456171875E0,9.609117737E0,9.718911356E0
5.876674417E0,-4.700225830E-2,1.479822693E0,9.656718750E0,9.769559941E0
5.886653417E0,-8.981323242E-3,1.464105377E0,9.666598206E0,9.776850520E0
5.896632417E0,2.844085693E-3,1.446142731E0,9.699230347E0,9.806447175E0
5.906611417E0,8.831634521E-3,1.419198761E0,9.714049530E0,9.817176855E0
5.916590417E0,5.987548828E-3,1.407672729E0,9.713301086E0,9.814774392E0
5.926569417E0,7.783813477E-3,1.409468994E0,9.714498596E0,9.816218539E0
5.936549417E0,6.062393188E-2,1.438807983E0,9.666149139E0,9.772833922E0
5.946528417E0,4.745132446E-2,1.451980591E0,9.638007660E0,9.746881087E0
5.956507417E0,3.023712158E-2,1.455872498E0,9.566456451E0,9.676650663E0
5.966486417E0,-4.191284180E-3,1.440903625E0,9.511071625E0,9.619600006E0
5.976465417E0,-4.610412598E-2,1.430724792E0,9.531878357E0,9.638765690E0
5.986444417E0,-7.304809570E-2,1.440604248E0,9.574240265E0,9.682290704E0
5.996424417E0,-8.008346558E-2,1.445993042E0,9.632169800E0,9.740431422E0
6.006403417E0,-8.786727905E-2,1.439556427E0,9.667346649E0,9.774335507E0
6.016382417E0,-6.915618896E-2,1.421294403E0,9.655521240E0,9.759813050E0
6.026361417E0,-6.735992432E-2,1.427431641E0,9.637708282E0,9.743075458E0
6.036340417E0,-3.457809448E-2,1.437011719E0,9.605674896E0,9.712630361E0
6.046319417E0,-4.565505981E-2,1.435514832E0,9.583071899E0,9.690100838E0
6.056298417E0,-6.316864014E-2,1.436862030E0,9.594597931E0,9.701797371E0
6.066278417E0,-8.232879639E-3,1.446142731E0,9.552984467E0,9.661827405E0
6.076257417E0,1.541793823E-2,1.420545959E0,9.585317230E0,9.690020379E0
6.086236417E0,7.484436035E-2,1.413061523E0,9.642797699E0,9.746070593E0
6.096215417E0,6.301895142E-2,1.423390045E0,9.657317505E0,9.761853922E0
6.106194417E0,-1.347198486E-3,1.398841095E0,9.695188751E0,9.795582838E0
6.116173417E0,-1.332229614E-2,1.386865997E0,9.700577545E0,9.799223412E0
6.126152417E0,-9.580078125E-3,1.384920044E0,9.713750153E0,9.811984373E0
6.136132417E0,1.960922241E-2,1.406175842E0,9.682165833E0,9.783764625E0
6.146111417E0,3.607498169E-2,1.365909576E0,9.669891357E0,9.765951528E0
6.156090417E0,6.481521606E-2,1.354832611E0,9.682165833E0,9.776712516E0
6.166069417E0,6.361770630E-2,1.403631134E0,9.690847778E0,9.792178421E0
6.176048417E0,2.275268555E-2,1.425635376E0,9.697434082E0,9.801692797E0
6.186027417E0,-2.050735474E-2,1.418150940E0,9.663155365E0,9.766685428E0
6.196007417E0,-4.430786133E-2,1.427281952E0,9.656569061E0,9.761578919E0
6.205986417E0,-5.089416504E-2,1.440304871E0,9.652377777E0,9.759378315E0
6.215965417E0,-5.029541016E-2,1.430275726E0,9.680219879E0,9.785442003E0
6.225944417E0,-4.430786133E-2,1.370100861E0,9.710756378E0,9.807034669E0
6.235923417E0,-6.122268677E-2,1.339863739E0,9.753567352E0,9.845357238E0
6.245902417E0,-3.697311401E-2,1.351689148E0,9.772877197E0,9.865979894E0
6.255882417E0,-2.933898926E-2,1.366658020E0,9.772727509E0,9.867867950E0
6.265861417E0,-1.616638184E-2,1.338217163E0,9.683812408E0,9.775853379E0
6.275840417E0,2.395019531E-3,1.359472961E0,9.602980499E0,9.698732234E0
6.285819417E0,4.954696655E-2,1.366208954E0,9.561217346E0,9.658460485E0
6.295798417E0,7.244934082E-2,1.366059265E0,9.551038513E0,9.648507838E0
6.305777417E0,6.421646118E-2,1.358574829E0,9.555379486E0,9.651690341E0
6.315756417E0,7.065307617E-2,1.388662262E0,9.580976257E0,9.681347054E0
6.325736417E0,4.251159668E-2,1.423689423E0,9.657317505E0,9.761786732E0
6.335715417E0,1.721420288E-2,1.422192535E0,9.679321747E0,9.783261083E0
6.345694417E0,-3.233276367E-2,1.444795532E0,9.682914276E0,9.790163861E0
6.355673417E0,-7.244934082E-2,1.446442108E0,9.654323730E0,9.762346561E0
6.365652417E0,-1.544787598E-1,1.400038605E0,9.649533691E0,9.751793283E0
6.375631417E0,-1.896556091E-1,1.375190277E0,9.683063965E0,9.782067537E0
6.385610417E0,-1.661544800E-1,1.386716309E0,9.725425873E0,9.825197089E0
6.395590417E0,-1.341210938E-1,1.406026154E0,9.771230621E0,9.872783086E0
6.405569417E0,-1.392105103E-1,1.397194519E0,9.783056030E0,9.883304983E0
6.415548417E0,-1.272354126E-1,1.418600006E0,9.765392761E0,9.868713726E0
6.425527417E0,-1.137634277E-1,1.421294403E0,9.712852020E0,9.816950355E0
6.435506417E0,-1.047821045E-1,1.428778839E0,9.649084625E0,9.754856348E0
6.445485417E0,-5.089416504E-2,1.465302887E0,9.590107269E0,9.701539064E0
6.455465417E0,-3.532653809E-2,1.477876740E0,9.535321198E0,9.649234061E0
6.465444417E0,-5.134323120E-2,1.468596039E0,9.498946838E0,9.611940568E0
6.475423417E0,-2.185455322E-2,1.451980591E0,9.484277344E0,9.594802864E0
6.485402417E0,4.191284180E-2,1.451232147E0,9.508826294E0,9.619023283E0
6.495381417E0,6.721023560E-2,1.420995026E0,9.555379486E0,9.660694654E0
6.505360417E0,5.927673340E-2,1.385369110E0,9.591454468E0,9.691169182E0
6.515339417E0,3.787124634E-2,1.382824402E0,9.622140656E0,9.721071358E0
6.525319417E0,5.538482666E-3,1.337019653E0,9.646090851E0,9.738312016E0
6.535298417E0,2.050735474E-2,1.316362610E0,9.663903809E0,9.753167070E0
6.545277417E0,3.038681030E-2,1.340462494E0,9.678273926E0,9.770708738E0
6.555256417E0,4.340972900E-2,1.343755646E0,9.682614899E0,9.775509957E0
6.565235417E0,3.308120728E-2,1.341809692E0,9.678722992E0,9.771347214E0
6.575214417E0,3.382965088E-2,1.376387787E0,9.685458984E0,9.782826970E0
6.585194417E0,-0.000000000E0,1.358574829E0,9.629924469E0,9.725285129E0
6.595173417E0,-4.565505981E-2,1.388063507E0,9.592053223E0,9.692073551E0
6.605152417E0,-8.427474976E-2,1.395547943E0,9.559720459E0,9.661413538E0
6.615131417E0,-9.969268799E-2,1.420246582E0,9.582323456E0,9.687515770E0
6.625110417E0,-3.817062378E-2,1.472787323E0,9.617200928E0,9.729394286E0
6.635089417E0,-1.960922241E-2,1.500928802E0,9.629924469E0,9.746210395E0
6.645068417E0,-6.616241455E-2,1.488953705E0,9.618099060E0,9.732892177E0
6.655048417E0,-1.049317932E-1,1.439107361E0,9.620194702E0,9.727804829E0
6.665027417E0,-1.422042847E-1,1.397942963E0,9.677675171E0,9.779154529E0
6.675006417E0,-1.231938171E-1,1.383273468E0,9.718240814E0,9.816966269E0
6.684985417E0,-5.313949585E-2,1.355131989E0,9.738897858E0,9.832870283E0
6.694964417E0,6.137237549E-3,1.404978333E0,9.752070465E0,9.852760026E0
6.704943417E0,4.445755005E-2,1.446891174E0,9.686955872E0,9.794518089E0
6.714923417E0,4.460723877E-2,1.435814209E0,9.639205170E0,9.745656907E0
6.724902417E0,2.080673218E-2,1.447489929E0,9.576635284E0,9.685432535E0
6.734881417E0,2.604583740E-2,1.456620941E0,9.515711975E0,9.626588043E0
6.744860417E0,1.496887207E-2,1.419947205E0,9.482032013E0,9.587773737E0
6.754839417E0,-7.185058594E-3,1.389261017E0,9.474397888E0,9.575714759E0
6.764818458E0,3.203338623E-2,1.421144714E0,9.505682831E0,9.611383070E0
6.774797458E0,5.658233643E-2,1.443747711E0,9.520202637E0,9.629219452E0
6.784777458E0,6.406677246E-2,1.486408997E0,9.541757812E0,9.657052263E0
6.794756458E0,1.212478638E-1,1.513203278E0,9.570498047E0,9.690145410E0
6.804735458E0,1.350192261E-1,1.533111877E0,9.617200928E0,9.739569595E0
6.814714458E0,1.734892273E-1,1.524579620E0,9.625882874E0,9.747413125E0
6.824693458E0,1.342707825E-1,1.467248840E0,9.620045013E0,9.732220397E0
6.834672458E0,1.332229614E-2,1.377136230E0,9.606123962E0,9.704344350E0
6.844651458E0,-1.212478638E-2,1.339564362E0,9.614805908E0,9.707681100E0
6.854631458E0,-1.736389160E-2,1.301094360E0,9.715995483E0,9.802740243E0
6.864610458E0,-2.020797729E-2,1.275946655E0,9.794881439E0,9.877659168E0
6.874589458E0,-3.562591553E-2,1.266516266E0,9.843081207E0,9.924292434E0
6.884568458E0,-4.296066284E-2,1.307980042E0,9.870474243E0,9.956852876E0
6.894547458E0,-1.227447510E-2,1.345102844E0,9.857002258E0,9.948363978E0
6.904526458E0,-2.694396973E-2,1.359173584E0,9.821825409E0,9.915459302E0
6.914506458E0,-3.382965088E-2,1.375339966E0,9.764794006E0,9.861232502E0
6.924485458E0,-8.337661743E-2,1.390907593E0,9.715995483E0,9.815403396E0
6.934464458E0,-1.086740112E-1,1.384620667E0,9.683662720E0,9.782755650E0
6.944443458E0,-1.071771240E-1,1.397493896E0,9.656569061E0,9.757756000E0
6.954422458E0,-6.855743408E-2,1.482217712E0,9.624685364E0,9.738389899E0
6.964401458E0,-6.092330933E-2,1.504221954E0,9.628128204E0,9.745114061E0
6.974380458E0,-5.703140259E-2,1.455273743E0,9.550589447E0,9.660995447E0
6.984360458E0,-7.020401001E-2,1.464554443E0,9.558522949E0,9.670326225E0
6.994339458E0,-5.822891235E-2,1.447938995E0,9.518406372E0,9.628082769E0
7.004318458E0,-7.903564453E-2,1.456321564E0,9.514215088E0,9.625352350E0
7.014297458E0,-3.427871704E-2,1.497635651E0,9.526938629E0,9.643995397E0
7.024276458E0,-1.092727661E-2,1.495390320E0,9.534123688E0,9.650690447E0
7.034255458E0,-7.484436035E-3,1.469344482E0,9.549841003E0,9.662219849E0
7.044234458E0,2.694396973E-3,1.453776855E0,9.520502014E0,9.630858373E0
7.054214458E0,1.706451416E-2,1.438059540E0,9.494905243E0,9.603204257E0
7.064193458E0,-1.047821045E-2,1.424587555E0,9.496701508E0,9.602963033E0
7.074172458E0,-5.388793945E-3,1.400787048E0,9.506131897E0,9.608786450E0
7.084151458E0,-6.586303711E-3,1.376238098E0,9.570797424E0,9.669241853E0
7.094130458E0,5.972579956E-2,1.393003235E0,9.638756104E0,9.739078211E0
7.104109458E0,6.391708374E-2,1.406624908E0,9.681118011E0,9.782981395E0
7.114089458E0,-1.362167358E-2,1.330732727E0,9.696386261E0,9.787284693E0
7.124068458E0,-3.921844482E-2,1.278940430E0,9.704170074E0,9.788163441E0
7.134047458E0,-2.290237427E-2,1.327888641E0,9.753118286E0,9.843125980E0
7.144026458E0,4.311035156E-2,1.367855530E0,9.750872955E0,9.846441522E0
7.154005458E0,2.634521484E-2,1.371747437E0,9.756710815E0,9.852704757E0
7.163984458E0,-2.918930054E-2,1.333876190E0,9.722132721E0,9.813253403E0
7.173963458E0,-4.805007935E-2,1.352138214E0,9.676926727E0,9.771054060E0
7.183943458E0,-9.265731812E-2,1.348246307E0,9.667196960E0,9.761201287E0
7.193922458E0,-1.202000427E-1,1.347797241E0,9.653126221E0,9.747504875E0
7.203901458E0,-8.831634521E-2,1.398092651E0,9.640402679E0,9.741654206E0
7.213880458E0,-7.364685059E-2,1.430575104E0,9.677076416E0,9.782524058E0
7.223859458E0,-8.128097534E-2,1.446292419E0,9.661808167E0,9.769795566E0
7.233838458E0,-6.721023560E-2,1.445244598E0,9.643995209E0,9.751917388E0
7.243817458E0,-5.553451538E-2,1.424886932E0,9.639055481E0,9.743961074E0
7.253797458E0,-4.370910645E-2,1.418600006E0,9.646090851E0,9.749943854E0
7.263776458E0,-2.335144043E-2,1.444346466E0,9.651180267E0,9.758686518E0
7.273755458E0,-4.625381470E-2,1.435065765E0,9.677076416E0,9.783013908E0
7.283734458E0,-4.161346436E-2,1.397044830E0,9.702224121E0,9.802378223E0
7.293713458E0,-2.005828857E-2,1.376238098E0,9.730664978E0,9.827526370E0
7.303692458E0,1.511856079E-2,1.358275452E0,9.756411438E0,9.850518003E0
7.313671458E0,9.849517822E-2,1.341959381E0,9.754914551E0,9.847279532E0
7.323651458E0,1.692979431E-1,1.358425140E0,9.785451050E0,9.880740504E0
7.333630458E0,1.077758789E-1,1.349892883E0,9.777816925E0,9.871146350E0
7.343609458E0,3.218307495E-2,1.293909302E0,9.705816650E0,9.791737021E0
7.353588458E0,-3.158432007E-2,1.344803467E0,9.599387970E0,9.693180249E0
7.363567458E0,-1.242416382E-2,1.424886932E0,9.575437775E0,9.680881453E0
7.373546458E0,5.029541016E-2,1.409019928E0,9.484277344E0,9.588502673E0
7.383526458E0,6.451583862E-2,1.382674713E0,9.519005127E0,9.619116917E0
7.393505458E0,1.023870850E-1,1.385219421E0,9.514514465E0,9.615367984E0
7.403484458E0,7.214996338E-2,1.405277710E0,9.530381470E0,9.633700328E0
7.413463458E0,2.844085693E-2,1.407972107E0,9.547296295E0,9.650598991E0
7.423442458E0,-1.916015625E-2,1.433419189E0,9.540111237E0,9.647216183E0
7.433421458E0,-6.421646118E-2,1.444196777E0,9.542655945E0,9.651534104E0
7.443400458E0,-8.038284302E-2,1.454824677E0,9.583520966E0,9.693650001E0
7.453380458E0,-6.661148071E-2,1.439107361E0,9.639654236E0,9.746712311E0
7.463359458E0,-1.005908203E-1,1.407073975E0,9.661209412E0,9.763654182E0
7.473338458E0,-1.297801208E-1,1.351988525E0,9.674082642E0,9.768960580E0
7.483317458E0,-1.392105103E-1,1.328038330E0,9.716743927E0,9.808066982E0
7.493296458E0,-1.511856079E-1,1.334325256E0,9.733059998E0,9.825260195E0
7.503275458E0,-1.172062683E-1,1.305884399E0,9.751920776E0,9.839666163E0
7.513254458E0,-7.050338745E-2,1.348096619E0,9.780810699E0,9.873529924E0
7.523234458E0,1.182540894E-2,1.386716309E0,9.764943695E0,9.862922859E0
7.533213458E0,1.086740112E-1,1.442101135E0,9.720635834E0,9.827625692E0
7.543192458E0,1.571731567E-1,1.452579346E0,9.689949646E0,9.799480308E0
7.553171458E0,1.127156067E-1,1.399290161E0,9.642947388E0,9.744596045E0
7.563150458E0,5.239105225E-2,1.347497864E0,9.616452484E0,9.710543429E0
7.573129458E0,6.601272583E-2,1.352437592E0,9.629026337E0,9.723764359E0
7.583109458E0,1.468446350E-1,1.419647827E0,9.667496338E0,9.772279608E0
7.593088458E0,1.330732727E-1,1.405577087E0,9.682764587E0,9.785156386E0
7.603067458E0,8.472381592E-2,1.316212921E0,9.682315521E0,9.771736204E0
7.613046458E0,3.487747192E-2,1.291663971E0,9.711205444E0,9.796791487E0
7.623025458E0,5.837860107E-3,1.329834595E0,9.730365601E0,9.820820172E0
7.633004458E0,1.796264648E-2,1.352886658E0,9.751621399E0,9.845036560E0
7.642983458E0,-3.293151855E-3,1.382974091E0,9.779912567E0,9.877212056E0
7.652963458E0,-4.041595459E-2,1.424138489E0,9.782606964E0,9.885808156E0
7.662942458E0,-1.032852173E-1,1.434766388E0,9.773925018E0,9.879212149E0
7.672921458E0,-7.888595581E-2,1.456920319E0,9.815538483E0,9.923388308E0
7.682900458E0,-1.329235840E-1,1.483415222E0,9.820627899E0,9.932921108E0
7.692879458E0,-1.498384094E-1,1.495390320E0,9.836494904E0,9.950641977E0
7.702858458E0,-1.707948303E-1,1.494641876E0,9.780810699E0,9.895826552E0
7.712837458E0,-2.279759216E-1,1.518442383E0,9.770332489E0,9.890249604E0
7.722817458E0,-2.514770508E-1,1.520388336E0,9.670490112E0,9.792507361E0
7.732796458E0,-2.336640930E-1,1.539698181E0,9.507628784E0,9.634327921E0
7.742775458E0,-1.122665405E-1,1.619182892E0,9.402547302E0,9.541606405E0
7.752754458E0,7.080276489E-2,1.732796631E0,9.384434967E0,9.543333634E0
7.762733292E0,6.227050781E-2,1.702409821E0,9.338630219E0,9.492738866E0
7.772712292E0,6.092330933E-2,1.618584137E0,9.306447144E0,9.446347691E0
7.782691292E0,3.876937866E-2,1.515149231E0,9.345216522E0,9.467325499E0
7.792671292E0,3.787124634E-2,1.427731018E0,9.413474579E0,9.521205477E0
7.802650292E0,4.655319214E-2,1.389111328E0,9.477840729E0,9.579209903E0
7.812629292E0,-5.987548828E-3,1.389111328E0,9.579629059E0,9.679822263E0
7.822608292E0,-5.643264771E-2,1.395098877E0,9.662855988E0,9.763210095E0
7.832587292E0,-3.457809448E-2,1.401086426E0,9.677525482E0,9.778483434E0
7.842566292E0,-1.437011719E-2,1.435963898E0,9.713450775E0,9.819028708E0
7.852545292E0,-1.556762695E-2,1.467398529E0,9.701026611E0,9.811392261E0
7.862525292E0,-2.110610962E-2,1.485211487E0,9.646988983E0,9.760670831E0
7.872504292E0,-5.194198608E-2,1.536105652E0,9.602531433E0,9.724758530E0
7.882483292E0,-4.370910645E-2,1.595981140E0,9.553882599E0,9.686368721E0
7.892462292E0,-5.508544922E-2,1.674418030E0,9.509874115E0,9.656314816E0
7.902441292E0,-8.981323242E-2,1.672172699E0,9.501192169E0,9.647636010E0
7.912420292E0,-1.222956848E-1,1.628014526E0,9.526190186E0,9.665075633E0
7.922400292E0,-1.380130005E-1,1.620380402E0,9.556427307E0,9.693811588E0
7.932379292E0,-1.666035461E-1,1.636995850E0,9.597442017E0,9.737474283E0
7.942358292E0,-2.218386841E-1,1.607956238E0,9.554032288E0,9.690937448E0
7.952337292E0,-2.077679443E-1,1.585353241E0,9.565109253E0,9.697825913E0
7.962316292E0,-1.681004333E-1,1.596579895E0,9.643845520E0,9.776557755E0
7.972295292E0,-1.480421448E-1,1.561552734E0,9.701924744E0,9.827904515E0
7.982274292E0,-1.161584473E-1,1.544488220E0,9.787097626E0,9.908895831E0
7.992254292E0,-1.119671631E-1,1.525777130E0,9.789792023E0,9.908610414E0
8.002233292E0,-1.049317932E-1,1.530716858E0,9.693991241E0,9.814661022E0
8.012212292E0,-7.110214233E-2,1.548380127E0,9.581575012E0,9.706138071E0
8.022191292E0,-6.182144165E-2,1.539099426E0,9.468560028E0,9.593032781E0
8.032170292E0,-9.250762939E-2,1.516945496E0,9.419312439E0,9.541128242E0
8.042149292E0,-8.726852417E-2,1.523531799E0,9.417216797E0,9.540059598E0
8.052128292E0,-2.604583740E-2,1.558409271E0,9.475445709E0,9.602780287E0
8.062108292E0,2.380050659E-2,1.586401062E0,9.518556061E0,9.649877941E0
8.072087292E0,5.897735596E-2,1.639540558E0,9.543105011E0,9.683099959E0
8.082066292E0,2.993774414E-3,1.620081024E0,9.578281860E0,9.714327300E0
8.092045292E0,-9.490264893E-2,1.520687714E0,9.597442017E0,9.717632988E0
8.102024292E0,-1.552272034E-1,1.484163666E0,9.687854004E0,9.802109593E0
8.112003292E0,-2.010319519E-1,1.471589813E0,9.804760895E0,9.916618709E0
8.121982292E0,-2.083666992E-1,1.392853546E0,9.847122803E0,9.947325529E0
8.131962292E0,-2.079176331E-1,1.362766113E0,9.838889923E0,9.934994521E0
8.141941292E0,-1.646575928E-1,1.393901367E0,9.767638092E0,9.867969753E0
8.151920292E0,-1.249900818E-1,1.444496155E0,9.668095093E0,9.776208589E0
8.161899292E0,-8.921447754E-2,1.497785339E0,9.562564545E0,9.679564082E0
8.171878292E0,-3.981719971E-2,1.530267792E0,9.449699249E0,9.572884666E0
8.181857292E0,-2.439926147E-2,1.533860321E0,9.448202362E0,9.571930353E0
8.191837292E0,-3.876937866E-2,1.530267792E0,9.478888550E0,9.601695200E0
8.201816292E0,-5.403762817E-2,1.546883240E0,9.523346100E0,9.648310151E0
8.211795292E0,-8.008346558E-2,1.523232422E0,9.580527191E0,9.701193310E0
8.221774292E0,-1.049317932E-1,1.517394562E0,9.628577271E0,9.747974004E0
8.231753292E0,-1.053808594E-1,1.521136780E0,9.633516998E0,9.753441033E0
8.241732292E0,-1.167572021E-1,1.469344482E0,9.645641785E0,9.757612971E0
8.251711292E0,-1.335223389E-1,1.463207245E0,9.667196960E0,9.778215621E0
8.261691292E0,-1.317260742E-1,1.464704132E0,9.684261475E0,9.795286125E0
8.271670292E0,-1.112187195E-1,1.460812225E0,9.664801941E0,9.775210408E0
8.281649292E0,-5.987548828E-2,1.500629425E0,9.617799683E0,9.734348693E0
8.291628292E0,-3.472778320E-2,1.524878998E0,9.602232056E0,9.722619114E0
8.301607292E0,-6.077362061E-2,1.511407013E0,9.585317230E0,9.703934820E0
8.311586292E0,-1.053808594E-1,1.459015961E0,9.571845245E0,9.682977543E0
8.321565292E0,-1.429527283E-1,1.455872498E0,9.610614624E0,9.721312343E0
8.331545292E0,-8.202941895E-2,1.457070007E0,9.656119995E0,9.765778781E0
8.341524292E0,-5.718109131E-2,1.466201019E0,9.725575562E0,9.835641062E0
8.351503292E0,-7.349716187E-2,1.440005493E0,9.775571594E0,9.881336835E0
8.361482292E0,-1.065783691E-1,1.374142456E0,9.785001984E0,9.881593508E0
8.371461292E0,-1.107696533E-1,1.392105103E0,9.807754669E0,9.906678464E0
8.381440292E0,-1.204994202E-1,1.399888916E0,9.793534241E0,9.893812309E0
8.391419292E0,-1.276844788E-1,1.438209229E0,9.805659027E0,9.911392337E0
8.401399292E0,-1.694476318E-1,1.434916077E0,9.800120544E0,9.906061747E0
8.411378292E0,-1.670526123E-1,1.417552185E0,9.744885406E0,9.848865537E0
8.421357292E0,-1.227447510E-1,1.434167633E0,9.679022369E0,9.785467649E0
8.431336292E0,-1.234931946E-1,1.450633392E0,9.572743378E0,9.682820022E0
8.441315292E0,-1.513352966E-1,1.480122070E0,9.452842712E0,9.569216220E0
8.451294292E0,-1.592687988E-1,1.515747986E0,9.351503448E0,9.474886556E0
8.461273292E0,-1.396595764E-1,1.545386353E0,9.285341034E0,9.414100164E0
8.471253292E0,-6.885681152E-2,1.590592346E0,9.300010529E0,9.435301855E0
8.481232292E0,-5.822891235E-2,1.578766937E0,9.351952515E0,9.484456309E0
8.491211292E0,-8.158035278E-2,1.529369659E0,9.400152283E0,9.524100474E0
8.501190292E0,-7.559280396E-2,1.548380127E0,9.478738861E0,9.604669994E0
8.511169292E0,-7.514373779E-2,1.522034912E0,9.515711975E0,9.636960685E0
8.521148292E0,-4.430786133E-2,1.471140747E0,9.503138123E0,9.616436578E0
8.531127292E0,-3.233276367E-2,1.445543976E0,9.535321198E0,9.644324400E0
8.541107292E0,-2.305206299E-2,1.409019928E0,9.560768280E0,9.664065328E0
8.551086292E0,-3.667373657E-2,1.393302612E0,9.601333923E0,9.701971462E0
8.561065292E0,-2.604583740E-2,1.361568604E0,9.646839294E0,9.742487148E0
8.571044292E0,-6.586303711E-2,1.325343933E0,9.695039063E0,9.785430849E0
8.581023292E0,-9.789642334E-2,1.276844788E0,9.743687897E0,9.827480356E0
8.591002292E0,-1.037342834E-1,1.226399689E0,9.782906342E0,9.860024010E0
8.600981292E0,-1.652563477E-1,1.174158325E0,9.855205994E0,9.926280402E0
8.610961292E0,-8.457412720E-2,1.203197937E0,9.937534790E0,1.001046631E1
8.620940292E0,-8.232879639E-3,1.252146149E0,9.982591095E0,1.006081819E1
8.630919292E0,-3.008743286E-2,1.232836304E0,9.967023468E0,1.004302481E1
8.640898292E0,-5.343887329E-2,1.217568054E0,9.889035645E0,9.963852350E0
8.650877292E0,-1.088237000E-1,1.267564087E0,9.818681946E0,9.900761408E0
8.660856292E0,-1.160087585E-1,1.340761871E0,9.731563110E0,9.824175334E0
8.670835292E0,-9.071136475E-2,1.403331757E0,9.662855988E0,9.764648197E0
8.680815292E0,-6.212081909E-2,1.470092926E0,9.552984467E0,9.665637301E0
8.690794292E0,-6.077362061E-2,1.506467285E0,9.408834229E0,9.528866599E0
8.700773292E0,1.137634277E-2,1.552571411E0,9.332193604E0,9.460467476E0
8.710752292E0,-1.167572021E-2,1.539698181E0,9.335935822E0,9.462056038E0
8.720731292E0,-8.622070312E-2,1.496138763E0,9.346414032E0,9.465797403E0
8.730710292E0,-1.046324158E-1,1.498833160E0,9.420360260E0,9.539425361E0
8.740690292E0,-1.076261902E-1,1.480421448E0,9.571246490E0,9.685659009E0
8.750669292E0,-2.240840149E-1,1.406475220E0,9.642648010E0,9.747258427E0
8.760648167E0,-2.912942505E-1,1.334175568E0,9.765243073E0,9.860266175E0
8.770627167E0,-3.165916443E-1,1.302441559E0,9.839338989E0,9.930215306E0
8.780606167E0,-3.342549133E-1,1.257534943E0,9.907896423E0,9.992974133E0
8.790585167E0,-2.019300842E-1,1.297052765E0,9.847571869E0,9.934676308E0
8.800564167E0,-1.184037781E-1,1.299896851E0,9.819430389E0,9.905804584E0
8.810544167E0,-1.209484863E-1,1.281485138E0,9.832902374E0,9.916793927E0
8.820523167E0,-1.020877075E-1,1.326092377E0,9.792785797E0,9.882691767E0
8.830502167E0,-6.361770630E-2,1.373543701E0,9.744136963E0,9.840674502E0
8.840481167E0,-2.993774414E-4,1.379531250E0,9.704319763E0,9.801883932E0
8.850460167E0,3.757186890E-2,1.371298370E0,9.668693848E0,9.765526693E0
8.860439167E0,4.161346436E-2,1.377285919E0,9.666897583E0,9.764607369E0
8.870418167E0,-2.634521484E-2,1.317410431E0,9.657167816E0,9.746648375E0
8.880398167E0,-8.322692871E-2,1.280437317E0,9.667346649E0,9.752129905E0
8.890377167E0,-1.152603149E-2,1.320254517E0,9.722731476E0,9.811967804E0
8.900356167E0,3.338058472E-2,1.318907318E0,9.748927002E0,9.837794899E0
8.910335167E0,4.819976807E-2,1.281485138E0,9.740843811E0,9.824895192E0
8.920314167E0,5.463638306E-2,1.323397980E0,9.775122528E0,9.864450709E0
8.930293167E0,5.388793945E-2,1.325044556E0,9.747879181E0,9.837672261E0
8.940272167E0,-5.239105225E-3,1.297202454E0,9.687105560E0,9.773575384E0
8.950252167E0,-5.628295898E-2,1.308878174E0,9.622739410E0,9.711510882E0
8.960231167E0,-2.020797729E-2,1.344803467E0,9.586664429E0,9.680549550E0
8.970210167E0,2.484832764E-2,1.416354675E0,9.584419098E0,9.688537942E0
8.980189167E0,1.017883301E-2,1.417701874E0,9.577533417E0,9.681896951E0
8.990168167E0,7.484436035E-4,1.398242340E0,9.598340149E0,9.699650294E0
9.000147167E0,4.340972900E-3,1.421743469E0,9.620194702E0,9.724686085E0
9.010126167E0,1.332229614E-2,1.430275726E0,9.600136414E0,9.706105568E0
9.020106167E0,1.347198486E-3,1.384920044E0,9.558373260E0,9.658183304E0
9.030085167E0,-1.886077881E-2,1.378782806E0,9.528136139E0,9.627397158E0
9.040064167E0,2.395019531E-3,1.382225647E0,9.507628784E0,9.607578185E0
9.050043167E0,-1.287322998E-2,1.360520782E0,9.508526917E0,9.605376965E0
9.060022167E0,-9.355545044E-2,1.334025879E0,9.551337891E0,9.644502743E0
9.070001167E0,-9.789642334E-2,1.353186035E0,9.584568787E0,9.680116476E0
9.079980167E0,-1.031355286E-1,1.373244324E0,9.644444275E0,9.742265767E0
9.089960167E0,-8.487350464E-2,1.360071716E0,9.702074432E0,9.797308144E0
9.099939167E0,-3.787124634E-2,1.353485413E0,9.723779297E0,9.817598525E0
9.109918167E0,1.302291870E-2,1.363813934E0,9.725874939E0,9.821038711E0
9.119897167E0,-1.107696533E-2,1.327140198E0,9.729617157E0,9.819718623E0
9.129876167E0,-1.975891113E-2,1.281634827E0,9.681267700E0,9.765752533E0
9.139855167E0,1.601669312E-2,1.330433350E0,9.675729218E0,9.766782752E0
9.149834167E0,6.631210327E-2,1.379381561E0,9.671537933E0,9.769633401E0
9.159814167E0,5.403762817E-2,1.389410706E0,9.629625092E0,9.729494415E0
9.169793167E0,3.412902832E-2,1.384321289E0,9.575138397E0,9.674749896E0
9.179772167E0,5.972579956E-2,1.407073975E0,9.560768280E0,9.663938868E0
9.189751167E0,2.649490356E-2,1.409618683E0,9.558972015E0,9.662384426E0
9.199730167E0,-8.831634521E-3,1.366508331E0,9.540859680E0,9.638227350E0
9.209709167E0,-1.347198486E-3,1.359323273E0,9.616003418E0,9.711605599E0
9.219688167E0,1.242416382E-2,1.388213196E0,9.682465210E0,9.781483670E0
9.229668167E0,1.332229614E-2,1.403631134E0,9.679621124E0,9.780870255E0
9.239647167E0,-4.745132446E-2,1.357826385E0,9.672585754E0,9.767541108E0
9.249626167E0,-1.257385254E-1,1.346000977E0,9.651779022E0,9.745992361E0
9.259605167E0,-1.454974365E-1,1.393901367E0,9.668544159E0,9.769589381E0
9.269584167E0,-1.422042847E-1,1.416354675E0,9.687105560E0,9.791133579E0
9.279563167E0,-1.052311707E-1,1.441203003E0,9.685608673E0,9.792811397E0
9.289542167E0,-9.520202637E-2,1.448537750E0,9.678124237E0,9.786389211E0
9.299522167E0,-8.816665649E-2,1.418450317E0,9.650581512E0,9.754665458E0
9.309501167E0,-6.825805664E-2,1.395847321E0,9.646539917E0,9.747244804E0
9.319480167E0,-2.350112915E-2,1.453327789E0,9.686057739E0,9.794510120E0
9.329459167E0,3.607498169E-2,1.497485962E0,9.705816650E0,9.820725149E0
9.339438167E0,-2.095642090E-3,1.464255066E0,9.655970306E0,9.766361136E0
9.349417167E0,-5.972579956E-2,1.431323547E0,9.558972015E0,9.665722956E0
9.359396167E0,-1.392105103E-2,1.439107361E0,9.517657928E0,9.625852494E0
9.369376167E0,-3.203338623E-2,1.412762146E0,9.518256683E0,9.622584544E0
9.379355167E0,-9.430389404E-3,1.358874207E0,9.505682831E0,9.602324412E0
9.389334167E0,-2.724334717E-2,1.348395996E0,9.577383728E0,9.671876397E0
9.399313167E0,8.831634521E-3,1.370998993E0,9.652228088E0,9.749113975E0
9.409292167E0,6.885681152E-3,1.362915802E0,9.679321747E0,9.774807230E0
9.419271167E0,-6.601272583E-2,1.344354401E0,9.646539917E0,9.739988645E0
9.429250167E0,-8.322692871E-2,1.393901367E0,9.611961823E0,9.712862494E0
9.439230167E0,-1.164578247E-1,1.398691406E0,9.594747620E0,9.696859386E0
9.449209167E0,-1.010398865E-1,1.402882690E0,9.568552094E0,9.671374156E0
9.459188167E0,-8.367599487E-2,1.379381561E0,9.570198669E0,9.669456951E0
9.469167167E0,-7.828720093E-2,1.397793274E0,9.586514740E0,9.688200028E0
9.479146167E0,-7.185058594E-2,1.419498138E0,9.566456451E0,9.671464548E0
9.489125167E0,-7.065307617E-2,1.408720551E0,9.554930420E0,9.658477146E0
9.499104167E0,-1.975891113E-2,1.409169617E0,9.555978241E0,9.659341052E0
9.509084167E0,2.963836670E-2,1.421743469E0,9.576335907E0,9.681345068E0
9.519063167E0,5.987548828E-2,1.392703857E0,9.592951355E0,9.693705422E0
9.529042167E0,1.119671631E-1,1.364263000E0,9.593999176E0,9.691159392E0
9.539021167E0,1.562750244E-1,1.346300354E0,9.631870422E0,9.726760733E0
9.549000167E0,1.913021851E-1,1.311722260E0,9.608668671E0,9.699676563E0
9.558979167E0,1.618135071E-1,1.269809418E0,9.604627075E0,9.689554212E0
9.568958167E0,9.819580078E-2,1.227148132E0,9.664352875E0,9.742445865E0
9.578938167E0,9.041198730E-2,1.237476654E0,9.685309296E0,9.764463065E0
9.588917167E0,5.328918457E-2,1.265917511E0,9.702822876E0,9.785201002E0
9.598896167E0,2.499801636E-2,1.265468445E0,9.702224121E0,9.784436018E0
9.608875167E0,-9.280700684E-3,1.281934204E0,9.672885132E0,9.757466280E0
9.618854167E0,-8.217910767E-2,1.282832336E0,9.642049255E0,9.727359665E0
9.628833167E0,-2.008822632E-1,1.272803192E0,9.629774780E0,9.715603119E0
9.638812167E0,-2.733316040E-1,1.298100586E0,9.625134430E0,9.716120012E0
9.648792167E0,-3.076103210E-1,1.347797241E0,9.648635559E0,9.747171367E0
9.658771167E0,-3.110531616E-1,1.424437866E0,9.621392212E0,9.731236581E0
9.668750167E0,-2.564167786E-1,1.431622925E0,9.523944855E0,9.634356198E0
9.678729167E0,-3.189866638E-1,1.326541443E0,9.532626801E0,9.629768347E0
9.688708167E0,-3.326083374E-1,1.321152649E0,9.603429565E0,9.699584117E0
9.698687167E0,-2.959346008E-1,1.385219421E0,9.723030853E0,9.825667362E0
9.708666167E0,-3.011737061E-1,1.401535492E0,9.740095367E0,9.845022352E0
9.718646167E0,-3.016227722E-1,1.384321289E0,9.742340698E0,9.844822193E0
9.728625167E0,-2.526745605E-1,1.390608215E0,9.711504822E0,9.813814831E0
9.738604167E0,-2.546205139E-1,1.341660004E0,9.689949646E0,9.785704232E0
9.748583167E0,-2.300715637E-1,1.313668213E0,9.673034821E0,9.764540938E0
9.758562167E0,-1.401086426E-1,1.341061249E0,9.676327972E0,9.769820814E0
9.768541458E0,-5.658233643E-2,1.365759888E0,9.645043030E0,9.741424777E0
9.778520458E0,3.787124634E-2,1.388961639E0,9.600884857E0,9.700909169E0
9.788500458E0,3.457809448E-2,1.399888916E0,9.525741119E0,9.628116560E0
9.798479458E0,-8.741821289E-2,1.379531250E0,9.451944580E0,9.552486836E0
9.808458458E0,-1.537303162E-1,1.374441833E0,9.489666138E0,9.589915890E0
9.818437458E0,-1.529818726E-1,1.355880432E0,9.580826569E0,9.677502412E0
9.828416458E0,-1.362167358E-1,1.348395996E0,9.728868713E0,9.822810861E0
9.838395458E0,-7.065307617E-2,1.358874207E0,9.830806732E0,9.924529811E0
9.848374458E0,-6.481521606E-2,1.309177551E0,9.879006500E0,9.965586601E0
9.858354458E0,-9.056167603E-2,1.256786499E0,9.852511597E0,9.932758856E0
9.868333458E0,-1.035845947E-1,1.277443542E0,9.822274475E0,9.905537221E0
9.878312458E0,-9.445358276E-2,1.306333466E0,9.790690155E0,9.877906778E0
9.888291458E0,-1.002914429E-1,1.323397980E0,9.765692139E0,9.855464653E0
9.898270458E0,-1.022373962E-1,1.352437592E0,9.758806458E0,9.852605919E0
9.908249458E0,-1.077758789E-1,1.380878448E0,9.733209686E0,9.831267046E0
9.918228458E0,-1.309776306E-1,1.372046814E0,9.705068207E0,9.802449515E0
9.928208458E0,-9.475296021E-2,1.387764130E0,9.676926727E0,9.776388816E0
9.938187458E0,8.681945801E-3,1.422940979E0,9.661059723E0,9.765291157E0
9.948166458E0,3.128494263E-2,1.428778839E0,9.669442291E0,9.774482183E0
9.958145458E0,-1.377136230E-2,1.390308838E0,9.717043304E0,9.816011354E0
9.968124458E0,-4.655319214E-2,1.391805725E0,9.749076691E0,9.848034662E0
9.978103458E0,-8.128097534E-2,1.366807709E0,9.788744202E0,9.884041833E0
9.988082458E0,-6.002517700E-2,1.345402222E0,9.795180817E0,9.887329133E0
9.998062458E0,5.284011841E-2,1.397044830E0,9.796228638E0,9.895484923E0
1.000804146E1,1.052311707E-1,1.412612457E0,9.785451050E0,9.887446576E0
1.001802046E1,1.927990723E-1,1.399739227E0,9.758058014E0,9.859824420E0
1.002799946E1,3.209326172E-1,1.433119812E0,9.745633850E0,9.855668891E0
1.003797846E1,3.415896606E-1,1.466201019E0,9.730066223E0,9.845842657E0
1.004795746E1,3.597019958E-1,1.455872498E0,9.614057465E0,9.730316089E0
1.005793646E1,3.242257690E-1,1.425485687E0,9.481433258E0,9.593472178E0
1.006791646E1,2.474354553E-1,1.368753662E0,9.391620026E0,9.494063282E0
1.007789546E1,2.035766602E-1,1.325493622E0,9.358389130E0,9.453984551E0
1.008787446E1,1.883084106E-1,1.283131714E0,9.418264618E0,9.507133925E0
1.009785346E1,2.130070496E-1,1.305734711E0,9.522298279E0,9.613765113E0
1.010783246E1,2.100132751E-1,1.333726501E0,9.575288086E0,9.670008991E0
1.011781146E1,1.465452576E-1,1.354982300E0,9.557175751E0,9.653862485E0
1.012779046E1,-9.879455566E-3,1.345102844E0,9.447453918E0,9.542734661E0
1.013777046E1,-1.718426514E-1,1.305884399E0,9.379794617E0,9.471821948E0
1.014774946E1,-2.859054565E-1,1.260079651E0,9.390272827E0,9.478753421E0
1.015772846E1,-2.487826538E-1,1.232237549E0,9.465865631E0,9.548974517E0
1.016770746E1,-1.372645569E-1,1.204096069E0,9.606423340E0,9.682564654E0
1.017768646E1,-3.951782227E-2,1.114133148E0,9.682465210E0,9.746434572E0
1.018766546E1,5.239105225E-3,1.010997620E0,9.732161865E0,9.784534644E0
1.019764446E1,6.436614990E-3,1.008602600E0,9.790390778E0,9.842208706E0
1.020762446E1,-1.481918335E-2,1.056802368E0,9.816885681E0,9.873616122E0
1.021760346E1,-7.080276489E-2,1.067430267E0,9.752070465E0,9.810570766E0
1.022758246E1,-8.547225952E-2,1.069376221E0,9.653575287E0,9.713000918E0
1.023756146E1,-7.664062500E-2,1.095122681E0,9.567803650E0,9.630578080E0
1.024754046E1,-4.071533203E-2,1.131047974E0,9.577683105E0,9.644321693E0
1.025751946E1,2.888992310E-2,1.207987976E0,9.653126221E0,9.728459046E0
1.026749846E1,2.859054565E-2,1.266815643E0,9.746531982E0,9.828556607E0
1.027747746E1,-6.571334839E-2,1.238225098E0,9.781110077E0,9.859393185E0
1.028745746E1,-1.222956848E-1,1.256636810E0,9.755513306E0,9.836876139E0
1.029743646E1,-9.071136475E-2,1.337917786E0,9.733658752E0,9.825597451E0
1.030741546E1,-6.197113037E-2,1.352437592E0,9.650880890E0,9.745379921E0
1.031739446E1,-3.532653809E-2,1.340312805E0,9.572444000E0,9.665886949E0
1.032737346E1,-3.457809448E-2,1.341660004E0,9.566306763E0,9.659993390E0
1.033735246E1,-1.101708984E-1,1.345551910E0,9.583371277E0,9.677998378E0
1.034733146E1,-1.743873596E-1,1.293310547E0,9.616003418E0,9.704152970E0
1.035731146E1,-1.672023010E-1,1.283431091E0,9.655371552E0,9.741732483E0
1.036729046E1,-1.215472412E-1,1.257085876E0,9.685159607E0,9.767156968E0
1.037726946E1,-5.658233643E-2,1.228645020E0,9.686656494E0,9.764429537E0
1.038724846E1,5.987548828E-4,1.193617859E0,9.675130463E0,9.748480570E0
1.039722746E1,6.735992432E-2,1.192270660E0,9.689949646E0,9.763256159E0
1.040720646E1,6.945556641E-2,1.196012878E0,9.708511047E0,9.782149950E0
1.041718546E1,6.571334839E-2,1.160087585E0,9.746082916E0,9.815103344E0
1.042716546E1,1.196012878E-1,1.201850739E0,9.853709106E0,9.927453491E0
1.043714446E1,1.392105103E-1,1.215472412E0,9.926457825E0,1.000156576E1
1.044712346E1,1.752854919E-1,1.211131439E0,9.946815491E0,1.002181135E1
1.045710246E1,2.421963501E-1,1.224154358E0,9.970615997E0,1.004840268E1
1.046708146E1,2.829116821E-1,1.256636810E0,9.933343506E0,1.001651078E1
1.047706046E1,3.056643677E-1,1.257235565E0,9.903405762E0,9.987568155E0
1.048703946E1,3.234773254E-1,1.261127472E0,9.878557434E0,9.963983995E0
1.049701946E1,3.466790771E-1,1.241518250E0,9.822873230E0,9.907087990E0
1.050699846E1,3.121009827E-1,1.220412140E0,9.786199493E0,9.866940424E0
1.051697746E1,3.040177917E-1,1.214125214E0,9.764644318E0,9.844531756E0
1.052695646E1,2.986289978E-1,1.211281128E0,9.753567352E0,9.833028900E0
1.053693546E1,2.595602417E-1,1.199306030E0,9.761051788E0,9.837877743E0
1.054691446E1,2.445913696E-1,1.241218872E0,9.728569336E0,9.810479629E0
1.055689346E1,1.981878662E-1,1.247954865E0,9.696535950E0,9.778521320E0
1.056687346E1,1.094224548E-1,1.256936188E0,9.630074158E0,9.712373044E0
1.057685246E1,7.155120850E-2,1.257534943E0,9.602232056E0,9.684491425E0
1.058683146E1,1.451980591E-2,1.199306030E0,9.665400696E0,9.739533684E0
1.059681046E1,-3.757186890E-2,1.202150116E0,9.722132721E0,9.796246281E0
1.060678946E1,-5.194198608E-2,1.254391479E0,9.737400970E0,9.818002527E0
1.061676846E1,-5.583389282E-2,1.292861481E0,9.733509064E0,9.819155102E0
1.062674746E1,-3.787124634E-2,1.325643311E0,9.678423615E0,9.768861145E0
1.063672746E1,4.221221924E-2,1.356030121E0,9.639354858E0,9.734359848E0
1.064670646E1,1.658551025E-1,1.453776855E0,9.582173767E0,9.693246575E0
1.065668546E1,2.318678284E-1,1.533860321E0,9.549391937E0,9.674573714E0
1.066666446E1,1.710942078E-1,1.542841644E0,9.517059174E0,9.642823699E0
1.067664346E1,9.789642334E-2,1.512005768E0,9.511071625E0,9.631003510E0
1.068662246E1,8.996292114E-2,1.526076508E0,9.574839020E0,9.696109791E0
1.069660146E1,1.637594604E-1,1.546434174E0,9.719887390E0,9.843499718E0
1.070658146E1,2.043251038E-1,1.572779388E0,9.843979340E0,9.970923377E0
1.071656046E1,1.859133911E-1,1.522783356E0,9.838889923E0,9.957770225E0
1.072653946E1,4.954696655E-2,1.407223663E0,9.736203461E0,9.837499233E0
1.073651846E1,1.167572021E-2,1.370100861E0,9.651629333E0,9.748397893E0
1.074649746E1,-7.035369873E-3,1.440753937E0,9.586215363E0,9.693881905E0
1.075647646E1,2.035766602E-2,1.446591797E0,9.547146606E0,9.656140564E0
1.076645529E1,2.469863892E-2,1.379980316E0,9.574839020E0,9.673804730E0
1.077643429E1,-7.319778442E-2,1.371597748E0,9.705517273E0,9.802229534E0
1.078641429E1,-1.342707825E-1,1.386566620E0,9.832902374E0,9.931090813E0
1.079639329E1,-5.897735596E-2,1.482517090E0,9.865235138E0,9.976181613E0
1.080637229E1,6.706054688E-2,1.583257599E0,9.770482178E0,9.898157593E0
1.081635129E1,9.924362183E-2,1.593286743E0,9.557325439E0,9.689730724E0
1.082633029E1,6.107299805E-2,1.541943512E0,9.397008820E0,9.522872175E0
1.083630929E1,3.412902832E-2,1.487157440E0,9.323661346E0,9.441581591E0
1.084628829E1,9.699829102E-2,1.484912109E0,9.418264618E0,9.535097328E0
1.085626829E1,2.266287231E-1,1.624571686E0,9.627379761E0,9.766116669E0
1.086624729E1,3.314108276E-1,1.744622040E0,9.743538208E0,9.904043417E0
1.087622629E1,3.477268982E-1,1.795366516E0,9.764794006E0,9.934558717E0
1.088620529E1,3.017724609E-1,1.761237488E0,9.713899841E0,9.876885857E0
1.089618429E1,3.258723450E-1,1.722617798E0,9.692344666E0,9.849626895E0
1.090616329E1,2.915936279E-1,1.677411804E0,9.670789490E0,9.819516615E0
1.091614229E1,2.760260010E-1,1.602717133E0,9.601782990E0,9.738538347E0
1.092612229E1,3.990701294E-1,1.657203827E0,9.555678864E0,9.706522551E0
1.093610129E1,4.674778748E-1,1.791474609E0,9.542356567E0,9.720313045E0
1.094608029E1,4.137396240E-1,1.950893097E0,9.517358551E0,9.724056671E0
1.095605929E1,4.257147217E-1,2.081122284E0,9.527687073E0,9.761614822E0
1.096603829E1,4.167333984E-1,2.121687927E0,9.461824036E0,9.705737503E0
1.097601729E1,4.546046448E-1,2.033221893E0,9.244925079E0,9.476776687E0
1.098599629E1,5.294490051E-1,1.910776520E0,9.058113556E0,9.272583478E0
1.099597629E1,6.728507996E-1,1.929038544E0,8.959319000E0,9.189304372E0
1.100595529E1,6.716532898E-1,1.871857452E0,8.934770050E0,9.153419269E0
1.101593429E1,5.800437927E-1,1.778900757E0,9.036708069E0,9.228381842E0
1.102591329E1,4.962181091E-1,1.726659393E0,9.254804535E0,9.427565542E0
1.103589229E1,2.911445618E-1,1.627266083E0,9.442514191E0,9.586127179E0
1.104587129E1,1.767823792E-1,1.566642151E0,9.566007385E0,9.695056314E0
1.105585029E1,2.847079468E-1,1.648970947E0,9.645342407E0,9.789422555E0
1.106583029E1,4.209246826E-1,1.710792389E0,9.663005676E0,9.822304561E0
1.107580929E1,4.861889648E-1,1.692680054E0,9.691745911E0,9.850456044E0
1.108578829E1,5.333409119E-1,1.694626007E0,9.681118011E0,9.842776833E0
1.109576729E1,5.986051941E-1,1.872306519E0,9.817634125E0,1.001248219E1
1.110574629E1,7.033872986E-1,2.064506836E0,9.849517822E0,1.008810902E1
1.111572529E1,7.373666382E-1,2.139650574E0,9.765841827E0,1.002464367E1
1.112570429E1,7.592211914E-1,2.155667267E0,9.557175751E0,9.826643705E0
1.113568429E1,8.020321655E-1,2.158960419E0,9.328750763E0,9.608847823E0
1.114566329E1,8.175997925E-1,2.093696136E0,9.184750214E0,9.455774396E0
1.115564229E1,8.190966797E-1,2.071991272E0,9.126221924E0,9.394253233E0
1.116562129E1,7.695497131E-1,2.054777069E0,9.157806244E0,9.416991598E0
1.117560029E1,6.210585022E-1,1.975142670E0,9.213490448E0,9.443267891E0
1.118557929E1,6.035449219E-1,1.952988739E0,9.338929596E0,9.560022881E0
1.119555829E1,6.514453125E-1,2.007924500E0,9.385632477E0,9.620095570E0
1.120553729E1,6.897656250E-1,1.978136444E0,9.333391113E0,9.565614987E0
1.121551729E1,6.233038330E-1,1.938468933E0,9.280850372E0,9.501597398E0
1.122549629E1,5.263055420E-1,1.966161346E0,9.333690491E0,9.553039628E0
1.123547529E1,4.556524658E-1,1.972448273E0,9.449848938E0,9.664254566E0
1.124545429E1,4.914280701E-1,2.046394501E0,9.546098785E0,9.775338052E0
1.125543329E1,6.116281128E-1,2.091450806E0,9.549541626E0,9.794998759E0
1.126541229E1,6.863227844E-1,2.099084930E0,9.467661896E0,9.721821757E0
1.127539129E1,7.593708801E-1,2.062261505E0,9.394015045E0,9.647646621E0
1.128537129E1,8.569679260E-1,2.091151428E0,9.382189636E0,9.650533182E0
1.129535029E1,8.955876160E-1,2.091301117E0,9.402547302E0,9.673857210E0
1.130532929E1,8.472381592E-1,2.074386292E0,9.510173492E0,9.770582933E0
1.131530829E1,7.885601807E-1,2.028132477E0,9.652377777E0,9.894622037E0
1.132528729E1,7.827223206E-1,2.003882904E0,9.758507080E0,9.992830498E0
1.133526629E1,6.568341064E-1,2.004331970E0,9.850116577E0,1.007340927E1
1.134524529E1,5.340893555E-1,1.998643799E0,9.877060547E0,1.009139007E1
1.135522529E1,5.459147644E-1,2.095941467E0,9.854307861E0,1.008951817E1
1.136520429E1,5.957611084E-1,2.214045868E0,9.852810974E0,1.011606715E1
1.137518329E1,5.644761658E-1,2.188299408E0,9.784403229E0,1.004200349E1
1.138516229E1,4.894821167E-1,2.035167847E0,9.711654510E0,9.934673333E0
1.139514129E1,5.022056580E-1,2.001188507E0,9.771679688E0,9.987126207E0
1.140512029E1,5.530998230E-1,2.021246796E0,9.860295410E0,1.008051505E1
1.141509929E1,5.574407959E-1,1.998643799E0,9.870174866E0,1.008591439E1
1.142507929E1,5.596861267E-1,1.904040527E0,9.840985565E0,1.003910433E1
1.143505829E1,5.303471375E-1,1.798659668E0,9.813592529E0,9.991148233E0
1.144503729E1,5.292993164E-1,1.775158539E0,9.827962646E0,1.000100972E1
1.145501629E1,5.357359314E-1,1.793719940E0,9.893376617E0,1.006892969E1
1.146499529E1,5.016069031E-1,1.814826050E0,9.988728333E0,1.016463953E1
1.147497429E1,4.308041382E-1,1.848805389E0,9.967472534E0,1.014663404E1
1.148495329E1,4.010160828E-1,1.895657959E0,9.905651093E0,1.009337687E1
1.149493329E1,3.330574036E-1,1.944456482E0,9.856403503E0,1.005189178E1
1.150491229E1,3.016227722E-1,1.930086365E0,9.740993500E0,9.934946605E0
1.151489129E1,4.516108704E-1,1.977088623E0,9.687854004E0,9.897845574E0
1.152487029E1,5.248086548E-1,2.102677460E0,9.761051788E0,9.998740353E0
1.153484929E1,5.451663208E-1,2.228565674E0,9.848769379E0,1.011246605E1
1.154482829E1,4.990621948E-1,2.252815247E0,9.847122803E0,1.011385520E1
1.155480729E1,3.436853027E-1,2.122885437E0,9.824070740E0,1.005669568E1
1.156478629E1,2.285746765E-1,2.058668976E0,9.852960663E0,1.006832648E1
1.157476629E1,1.001417542E-1,2.075883179E0,9.857002258E0,1.007371892E1
1.158474529E1,-5.807922363E-2,1.962119751E0,9.799970856E0,9.994634355E0
1.159472429E1,-1.149609375E-1,1.794169006E0,9.705517273E0,9.870629361E0
1.160470329E1,-1.065783691E-1,1.681902466E0,9.707463226E0,9.852664469E0
1.161468229E1,-2.574645996E-2,1.559906158E0,9.693392487E0,9.818137705E0
1.162466129E1,6.930587769E-2,1.468596039E0,9.648934937E0,9.760303430E0
1.163464029E1,1.107696533E-1,1.375339966E0,9.597591705E0,9.696267142E0
1.164462029E1,1.683998108E-1,1.325343933E0,9.546547852E0,9.639578358E0
1.165459929E1,1.818717957E-1,1.327888641E0,9.482630768E0,9.576881114E0
1.166457829E1,1.142124939E-1,1.313668213E0,9.407337341E0,9.499303370E0
1.167455729E1,6.676116943E-2,1.339264984E0,9.373807068E0,9.469231579E0
1.168453629E1,4.056564331E-2,1.424886932E0,9.342821503E0,9.450939740E0
1.169451529E1,4.700225830E-2,1.569785614E0,9.285939789E0,9.417808336E0
1.170449429E1,9.699829102E-2,1.775008850E0,9.200467529E0,9.370627932E0
1.171447429E1,1.440005493E-1,1.940115509E0,9.097032623E0,9.302730078E0
1.172445329E1,1.625619507E-1,2.097737732E0,9.020841064E0,9.262964077E0
1.173443229E1,1.862127686E-1,2.183060303E0,9.013506317E0,9.275975615E0
1.174441129E1,1.040336609E-1,2.138602753E0,9.169182587E0,9.415856522E0
1.175439029E1,1.507365417E-1,2.063908081E0,9.325457611E0,9.552308503E0
1.176436929E1,1.794767761E-1,2.013163605E0,9.510323181E0,9.722720125E0
1.177434829E1,1.691482544E-1,1.888023834E0,9.711654510E0,9.894921852E0
1.178432729E1,2.350112915E-1,1.856439514E0,9.835147705E0,1.001157971E1
1.179430729E1,2.971321106E-1,1.836979980E0,9.867929535E0,1.004185323E1
1.180428629E1,2.914439392E-1,1.746118927E0,9.735305328E0,9.894950263E0
1.181426529E1,3.562591553E-1,1.712588654E0,9.553583221E0,9.712406131E0
1.182424429E1,4.522096252E-1,1.775008850E0,9.484576721E0,9.659831548E0
1.183422329E1,5.408253479E-1,1.873803406E0,9.450747070E0,9.649883494E0
1.184420229E1,5.795947266E-1,1.944755859E0,9.488768005E0,9.703335698E0
1.185418129E1,5.956114197E-1,1.933529205E0,9.533824310E0,9.746132265E0
1.186416129E1,6.180647278E-1,1.841919708E0,9.514514465E0,9.710852575E0
1.187414029E1,5.769003296E-1,1.712438965E0,9.547745361E0,9.717237400E0
1.188411929E1,4.959187317E-1,1.549577637E0,9.549541626E0,9.687149813E0
1.189409829E1,4.403842163E-1,1.460961914E0,9.517358551E0,9.638903556E0
1.190407729E1,3.731739807E-1,1.436113586E0,9.478289795E0,9.593730166E0
1.191405629E1,2.812651062E-1,1.453327789E0,9.459728394E0,9.574848981E0
1.192403529E1,2.992277527E-1,1.511107635E0,9.423354034E0,9.548433630E0
1.193401529E1,3.764671326E-1,1.567091217E0,9.429940338E0,9.566675345E0
1.194399429E1,3.519181824E-1,1.604513397E0,9.398505707E0,9.540975798E0
1.195397329E1,2.854563904E-1,1.588796082E0,9.342671814E0,9.481100936E0
1.196395229E1,2.197430420E-1,1.658700714E0,9.295070801E0,9.444464847E0
1.197393129E1,1.802252197E-1,1.773062897E0,9.264683990E0,9.434543052E0
1.198391029E1,1.797761536E-1,1.845811615E0,9.243428192E0,9.427635161E0
1.199388929E1,1.145118713E-1,1.823058929E0,9.211544495E0,9.390910968E0
1.200386829E1,3.637435913E-2,1.792223053E0,9.172326050E0,9.345852114E0
1.201384829E1,-2.529739380E-2,1.779948578E0,9.150920563E0,9.322456975E0
1.202382729E1,4.191284180E-3,1.780098267E0,9.206604767E0,9.377117827E0
1.203380629E1,7.888595581E-2,1.794767761E0,9.267079010E0,9.439606331E0
1.204378529E1,2.294728088E-1,1.826801147E0,9.282047882E0,9.462889257E0
1.205376429E1,3.549119568E-1,1.848655701E0,9.322613525E0,9.510763026E0
1.206374329E1,4.698728943E-1,1.926493835E0,9.322164459E0,9.530734979E0
1.207372229E1,5.156776428E-1,2.017205200E0,9.289083252E0,9.519564481E0
1.208370229E1,4.219725037E-1,2.102228394E0,9.260792084E0,9.505771669E0
1.209368129E1,2.742297363E-1,2.142794037E0,9.275162201E0,9.523413363E0
1.210366029E1,1.766326904E-1,2.109263763E0,9.349557495E0,9.586157629E0
1.211363929E1,1.287322998E-1,2.106419678E0,9.551936646E0,9.782283452E0
1.212361829E1,1.700463867E-1,2.116598511E0,9.796228638E0,1.002372189E1
1.213359729E1,2.528242493E-1,2.125729523E0,9.973310394E0,1.020046893E1
1.214357629E1,2.448907471E-1,2.120789795E0,1.007973907E1,1.030334221E1
1.215355629E1,2.398013306E-1,2.097737732E0,1.008258316E1,1.030128591E1
1.216353529E1,1.895059204E-1,2.122735748E0,1.007330246E1,1.029627807E1
1.217351429E1,1.004411316E-1,2.147584076E0,1.006312363E1,1.029022171E1
1.218349329E1,1.556762695E-2,2.102976837E0,1.005339386E1,1.027100200E1
1.219347229E1,1.990859985E-2,2.088007965E0,1.001522324E1,1.023058503E1
1.220345129E1,9.400451660E-2,2.067799988E0,9.935289459E0,1.014862603E1
1.221343029E1,1.197509766E-1,2.019899597E0,9.802515564E0,1.000917809E1
1.222340929E1,1.303788757E-1,1.960922241E0,9.722282410E0,9.918920805E0
1.223338929E1,1.695973206E-1,2.004331970E0,9.716893616E0,9.922909424E0
1.224336829E1,1.808239746E-1,2.079775085E0,9.745933228E0,9.967014407E0
1.225334729E1,1.499880981E-1,2.080373840E0,9.754914551E0,9.975410249E0
1.226332629E1,1.249900818E-1,2.002835083E0,9.764943695E0,9.969006784E0
1.227330529E1,1.110690308E-1,1.948947144E0,9.817185059E0,1.000938828E1
1.228328429E1,8.143066406E-2,1.889371033E0,9.889035645E0,1.006823618E1
1.229326329E1,9.145980835E-2,1.811383209E0,9.963281250E0,1.012701572E1
1.230324329E1,1.562750244E-1,1.834734650E0,1.008452911E1,1.025126336E1
1.231322229E1,1.820214844E-1,1.872755585E0,1.012494507E1,1.029829393E1
1.232320129E1,1.140628052E-1,1.890568542E0,1.008797195E1,1.026423099E1
1.233318029E1,1.676513672E-2,1.860630798E0,1.010338989E1,1.027330109E1
1.234315929E1,-3.098556519E-2,1.853595428E0,1.013811768E1,1.030622172E1
1.235313829E1,-4.221221924E-2,1.850451965E0,1.019709503E1,1.036372044E1
1.236311729E1,2.814147949E-2,1.845212860E0,1.029394363E1,1.045805326E1
1.237309629E1,1.630110168E-1,1.820663910E0,1.028107040E1,1.044230809E1
1.238307629E1,2.600093079E-1,1.710343323E0,1.019544846E1,1.034118215E1
1.239305529E1,3.353027344E-1,1.567989349E0,1.004860382E1,1.017572883E1
1.240303429E1,3.608995056E-1,1.468895416E0,9.838291168E0,9.953887447E0
1.241301329E1,3.200344849E-1,1.387764130E0,9.621392212E0,9.726227401E0
1.242299229E1,2.977308655E-1,1.353335724E0,9.428742828E0,9.530023745E0
1.243297129E1,3.067121887E-1,1.401535492E0,9.275910645E0,9.386207561E0
1.244295029E1,3.040177917E-1,1.475930786E0,9.158704376E0,9.281845956E0
1.245293029E1,2.359094238E-1,1.468596039E0,9.005273438E0,9.127287509E0
1.246290929E1,1.781295776E-2,1.419049072E0,8.929980011E0,9.042044048E0
1.247288829E1,5.194198608E-2,1.445993042E0,8.895102539E0,9.012016591E0
1.248286729E1,1.041833496E-1,1.560355225E0,8.921148376E0,9.057176765E0
1.249284629E1,1.871109009E-2,1.623523865E0,8.988059235E0,9.133531007E0
1.250282529E1,-6.765930176E-2,1.622775421E0,8.992699585E0,9.138195865E0
1.251280429E1,-3.065625000E-1,1.599423981E0,9.065597992E0,9.210711405E0
1.252278429E1,-3.135978699E-1,1.647623749E0,9.204808502E0,9.356361857E0
1.253276329E1,-1.898052979E-1,1.734293518E0,9.355545044E0,9.516828417E0
1.254274229E1,-1.884580994E-1,1.699715424E0,9.479038239E0,9.632067011E0
1.255272129E1,-2.604583740E-2,1.715582428E0,9.563013611E0,9.715715659E0
1.256270029E1,1.164578247E-1,1.739083557E0,9.605225830E0,9.762086728E0
1.257267929E1,1.308279419E-1,1.667831726E0,9.588610382E0,9.733459183E0
1.258265829E1,1.124162292E-1,1.616787872E0,9.523346100E0,9.660267148E0
1.259263729E1,1.399589539E-1,1.646575928E0,9.438921661E0,9.582486260E0
1.260261729E1,2.011816406E-1,1.631457367E0,9.355694733E0,9.499007902E0
1.261259629E1,3.176394653E-1,1.661395111E0,9.277257843E0,9.430198388E0
1.262257529E1,4.228706360E-1,1.681154022E0,9.263336792E0,9.424144892E0
1.263255429E1,4.805007935E-1,1.641336823E0,9.254654846E0,9.411349738E0
1.264253329E1,5.038522339E-1,1.521585846E0,9.246721344E0,9.384612202E0
1.265251229E1,4.695735168E-1,1.436263275E0,9.260043640E0,9.382524165E0
1.266249129E1,4.267625427E-1,1.404529266E0,9.289532318E0,9.404798744E0
1.267247129E1,3.981719971E-1,1.364263000E0,9.334139557E0,9.441711484E0
1.268245029E1,3.246748352E-1,1.349294128E0,9.370214539E0,9.472429936E0
1.269242929E1,1.980381775E-1,1.360371094E0,9.431437225E0,9.531098403E0
1.270240829E1,1.157093811E-1,1.401385803E0,9.451196136E0,9.555227849E0
1.271238729E1,1.104702759E-1,1.509910126E0,9.408983917E0,9.530005804E0
1.272236629E1,6.286926270E-2,1.531914368E0,9.285490723E0,9.411219482E0
1.273234529E1,8.322692871E-2,1.491947479E0,9.185947723E0,9.306689507E0
1.274232429E1,1.975891113E-1,1.617985382E0,9.169481964E0,9.313233469E0
1.275230429E1,3.308120728E-1,1.764979706E0,9.150172119E0,9.324711245E0
1.276228329E1,4.649331665E-1,1.836231537E0,9.148824921E0,9.342853233E0
1.277226317E1,4.977149963E-1,1.875150604E0,9.125323792E0,9.329278874E0
1.278224217E1,4.212240601E-1,1.887574768E0,9.105265503E0,9.308395570E0
1.279222117E1,3.201841736E-1,1.910626831E0,9.119635620E0,9.323130731E0
1.280220017E1,2.381547546E-1,1.929637299E0,9.134005737E0,9.338644366E0
1.281217917E1,1.471440125E-1,1.909728699E0,9.149273987E0,9.347616250E0
1.282215917E1,1.136137390E-1,1.871857452E0,9.163045349E0,9.352975915E0
1.283213817E1,1.411564636E-1,1.873204651E0,9.212592316E0,9.402163474E0
1.284211717E1,1.303788757E-1,1.896705780E0,9.321565704E0,9.513468276E0
1.285209617E1,1.338217163E-1,1.935624847E0,9.429341583E0,9.626891217E0
1.286207517E1,1.600172424E-1,1.988315277E0,9.524543610E0,9.731183594E0
1.287205417E1,1.939965820E-1,2.072440338E0,9.551337891E0,9.775515287E0
1.288203317E1,1.981878662E-1,2.135010223E0,9.447753296E0,9.688012666E0
1.289201317E1,1.854643250E-1,2.174977112E0,9.365723877E0,9.616740934E0
1.290199217E1,1.683998108E-1,2.206711121E0,9.317823486E0,9.577043750E0
1.291197117E1,1.775308228E-1,2.176174622E0,9.265731812E0,9.519508348E0
1.292195017E1,8.741821289E-2,2.077679443E0,9.367969208E0,9.596001297E0
1.293192917E1,-4.056564331E-2,1.962718506E0,9.513316956E0,9.713758747E0
1.294190817E1,-1.329235840E-1,1.890418854E0,9.688901825E0,9.872495667E0
1.295188717E1,-2.248324585E-1,1.817071381E0,9.911189575E0,1.007888768E1
1.296186617E1,-2.848576355E-1,1.798659668E0,1.011776001E1,1.028033988E1
1.297184617E1,-2.079176331E-1,1.884880371E0,1.027178970E1,1.044536584E1
1.298182517E1,-1.318757629E-1,2.010319519E0,1.029573990E1,1.049099785E1
1.299180417E1,-7.798782349E-2,2.097737732E0,1.015233810E1,1.036708998E1
1.300178317E1,-4.026626587E-2,2.067500610E0,9.917925568E0,1.013121057E1
1.301176217E1,1.182540894E-2,1.932032318E0,9.758956146E0,9.948372419E0
1.302174117E1,7.813751221E-2,1.803150330E0,9.715546417E0,9.881765974E0
1.303172017E1,1.673519897E-1,1.807940369E0,9.834548950E0,1.000075038E1
1.304170017E1,1.445993042E-1,1.812580719E0,9.997410278E0,1.016142559E1
1.305167917E1,1.532812500E-1,1.783541107E0,1.016805542E1,1.032443049E1
1.306165817E1,2.240840149E-1,1.758992157E0,1.031744476E1,1.046871212E1
1.307163717E1,2.427951050E-1,1.788630524E0,1.040531204E1,1.056071339E1
1.308161617E1,2.320175171E-1,1.787133636E0,1.045081741E1,1.060505839E1
1.309159517E1,2.637515259E-1,1.758243713E0,1.055440201E1,1.070310177E1
1.310157417E1,2.932402039E-1,1.777703247E0,1.058718384E1,1.073939851E1
1.311155417E1,2.671943665E-1,1.753303986E0,1.062295944E1,1.076999234E1
1.312153317E1,2.365081787E-1,1.793869629E0,1.050620224E1,1.066087191E1
1.313151217E1,7.993377686E-2,1.758243713E0,1.029454239E1,1.044391753E1
1.314149117E1,-2.812651062E-1,1.709744568E0,1.008108627E1,1.022891182E1
1.315147017E1,-5.065466309E-1,1.731000366E0,1.002375549E1,1.018472513E1
1.316144917E1,-5.685177612E-1,1.799108734E0,9.990075531E0,1.016669139E1
1.317142817E1,-3.516188049E-1,1.735491028E0,9.892478485E0,1.004971121E1
1.318140717E1,-2.538720703E-1,1.572480011E0,9.722432098E0,9.852047012E0
1.319138717E1,-1.639091492E-1,1.396446075E0,9.594747620E0,9.697221753E0
1.320136617E1,-2.778222656E-1,1.316362610E0,9.764344940E0,9.856593115E0
1.321134517E1,-1.580712891E-1,1.307830353E0,9.962233429E0,1.004895525E1
1.322132417E1,3.772155762E-2,1.203048248E0,9.844727783E0,9.918034741E0
1.323130317E1,1.561253357E-1,1.191073151E0,9.796677704E0,9.870051895E0
1.324128217E1,3.357518005E-1,1.303938446E0,9.791887665E0,9.884029987E0
1.325126117E1,3.754193115E-1,1.353485413E0,9.730664978E0,9.831515821E0
1.326124117E1,3.671864319E-1,1.415157166E0,9.634864197E0,9.745157965E0
1.327122017E1,3.905378723E-1,1.519190826E0,9.476493530E0,9.605435452E0
1.328119917E1,3.918850708E-1,1.542392578E0,9.275461578E0,9.410990185E0
1.329117817E1,3.682342529E-1,1.524729309E0,9.148375854E0,9.281873556E0
1.330115717E1,4.237687683E-1,1.582359467E0,9.096882935E0,9.243198612E0
1.331113617E1,5.034031677E-1,1.659598846E0,9.059311066E0,9.223817001E0
1.332111517E1,5.117857361E-1,1.704355774E0,8.992699585E0,9.167082364E0
1.333109417E1,4.793032837E-1,1.687440948E0,8.926237793E0,9.096972558E0
1.334107417E1,3.228785706E-1,1.628014526E0,8.814869385E0,8.969760540E0
1.335105317E1,2.618055725E-1,1.547032928E0,8.729846191E0,8.869727593E0
1.336103217E1,1.441502380E-1,1.423240356E0,8.804690552E0,8.920143952E0
1.337101117E1,8.487350464E-2,1.309027863E0,8.885672150E0,8.981977901E0
1.338099017E1,8.876541138E-2,1.195713501E0,9.019643555E0,9.098987852E0
1.339096917E1,9.160949707E-2,1.122216339E0,9.207652588E0,9.276239971E0
1.340094817E1,6.511459351E-2,1.092128906E0,9.356443176E0,9.420191844E0
1.341092717E1,1.945953369E-3,1.080303497E0,9.437724152E0,9.499352430E0
1.342090717E1,2.140548706E-2,1.086740112E0,9.426946564E0,9.489403763E0
1.343088617E1,2.859054565E-2,1.151555328E0,9.365125122E0,9.435701651E0
1.344086517E1,6.825805664E-2,1.276545410E0,9.308243408E0,9.395617207E0
1.345084417E1,3.936813354E-2,1.365161133E0,9.176068268E0,9.277146308E0
1.346082317E1,-3.308120728E-2,1.415905609E0,9.112300873E0,9.221708641E0
1.347080217E1,-1.004411316E-1,1.519490204E0,9.120833130E0,9.247082561E0
1.348078117E1,-1.942959595E-1,1.561552734E0,9.153914337E0,9.288183114E0
1.349076117E1,-2.350112915E-1,1.548080750E0,9.140142975E0,9.273294879E0
1.350074017E1,-1.628613281E-1,1.537602539E0,9.171128540E0,9.300556117E0
1.351071917E1,-5.598358154E-2,1.528321838E0,9.217681732E0,9.343690830E0
1.352069817E1,4.819976807E-2,1.514999542E0,9.223519592E0,9.347238121E0
1.353067717E1,6.541397095E-2,1.503772888E0,9.223220215E0,9.345234241E0
1.354065617E1,2.948867798E-2,1.502276001E0,9.187893677E0,9.309945917E0
1.355063517E1,2.874023438E-2,1.482816467E0,9.194330292E0,9.313177771E0
1.356061517E1,2.035766602E-2,1.531016235E0,9.215436401E0,9.341771417E0
1.357059417E1,3.966751099E-2,1.538949738E0,9.206604767E0,9.334426128E0
1.358057317E1,6.017486572E-2,1.559606781E0,9.191785583E0,9.323353288E0
1.359055217E1,1.393601990E-1,1.640289001E0,9.162446594E0,9.309156614E0
1.360053117E1,1.679507446E-1,1.681004333E0,9.185798035E0,9.339853776E0
1.361051017E1,1.835183716E-1,1.695524139E0,9.259295197E0,9.415042678E0
1.362048917E1,2.411485291E-1,1.745071106E0,9.323811035E0,9.488776423E0
1.363046817E1,2.180964661E-1,1.807042236E0,9.406588898E0,9.581068959E0
1.364044817E1,2.008822632E-1,1.811981964E0,9.470056915E0,9.643941637E0
1.365042717E1,1.721420288E-1,1.861977997E0,9.590406647E0,9.771002742E0
1.366040617E1,4.370910645E-2,1.839973755E0,9.663754120E0,9.837456866E0
1.367038517E1,-8.786727905E-2,1.790426788E0,9.712702332E0,9.876737079E0
1.368036417E1,-1.163081360E-1,1.767524414E0,9.812844086E0,9.971438170E0
1.369034317E1,-1.489402771E-1,1.755848694E0,9.910291443E0,1.006573715E1
1.370032217E1,-1.275347900E-1,1.810485077E0,1.000863693E1,1.017186977E1
1.371030217E1,-9.969268799E-2,1.829345856E0,1.007914032E1,1.024429180E1
1.372028117E1,-1.425036621E-1,1.816472626E0,1.016640884E1,1.032839527E1
1.373026017E1,-2.061213684E-1,1.801952820E0,1.022194336E1,1.038160132E1
1.374023917E1,-2.486329651E-1,1.817071381E0,1.030591873E1,1.046783300E1
1.375021817E1,-2.832110596E-1,1.813329163E0,1.029648834E1,1.045877829E1
1.376019717E1,-3.869453430E-1,1.716031494E0,1.022673340E1,1.037692473E1
1.377017504E1,-4.565505981E-1,1.610650635E0,1.030906219E1,1.044410826E1
1.378015404E1,-3.625460815E-1,1.640289001E0,1.043360321E1,1.056797349E1
1.379013404E1,-2.056723022E-1,1.702559509E0,1.061517563E1,1.075281189E1
1.380011304E1,-1.294807434E-1,1.649270325E0,1.069481003E1,1.082200626E1
1.381009204E1,-6.855743408E-2,1.572929077E0,1.071905960E1,1.083406871E1
1.382007104E1,-6.661148071E-2,1.566791840E0,1.068433182E1,1.079880642E1
1.383005004E1,-1.451980591E-1,1.508263550E0,1.055754547E1,1.066572584E1
1.384002904E1,-1.932481384E-1,1.418001251E0,1.036220169E1,1.046055908E1
1.385000804E1,-1.914518738E-1,1.364263000E0,1.019050873E1,1.028320648E1
1.385998804E1,-2.152523804E-1,1.281784515E0,1.008542725E1,1.016883218E1
1.386996704E1,-1.790277100E-1,1.223854980E0,1.006252487E1,1.013825817E1
1.387994604E1,-6.077362061E-2,1.190923462E0,1.009261230E1,1.016281532E1
1.388992504E1,7.035369873E-3,1.120270386E0,1.012913635E1,1.019090077E1
1.389990404E1,1.417552185E-1,1.057251434E0,1.014395554E1,1.019988770E1
1.390988304E1,2.204914856E-1,9.627978516E-1,1.013961456E1,1.018760913E1
1.391986204E1,2.098635864E-1,8.539741516E-1,1.009366013E1,1.013189466E1
1.392984104E1,2.647993469E-1,7.810757446E-1,1.008183472E1,1.011551231E1
1.393982104E1,2.583627319E-1,6.697073364E-1,1.010668304E1,1.013214199E1
1.394980004E1,1.606159973E-1,5.665718079E-1,1.016640884E1,1.018345079E1
1.395977904E1,7.708969116E-2,5.492079163E-1,1.026640091E1,1.028136955E1
1.396975804E1,1.389111328E-1,6.947053528E-1,1.027089157E1,1.029529628E1
1.397973704E1,1.519340515E-1,8.318202209E-1,1.015383499E1,1.018898297E1
1.398971604E1,4.580474854E-2,9.430389404E-1,9.951755219E0,9.996441989E0
1.399969504E1,-1.055305481E-1,1.072819061E0,9.716893616E0,9.776507504E0
1.400967504E1,-2.160008240E-1,1.228345642E0,9.581275635E0,9.662108060E0
1.401965404E1,-2.516267395E-1,1.397942963E0,9.515562286E0,9.620991953E0
1.402963304E1,-3.061134338E-1,1.475930786E0,9.491462402E0,9.610407674E0
1.403961204E1,-3.135978699E-1,1.492396545E0,9.497449951E0,9.619103214E0
1.404959104E1,-3.004252625E-1,1.525178375E0,9.557325439E0,9.682917637E0
1.405957004E1,-2.091151428E-1,1.582808533E0,9.604477386E0,9.736272277E0
1.406954904E1,-1.175056458E-1,1.596430206E0,9.538015594E0,9.671408298E0
1.407952804E1,-3.936813354E-2,1.548829193E0,9.406289520E0,9.533032270E0
1.408950804E1,1.097218323E-1,1.487606506E0,9.225764923E0,9.345573841E0
1.409948704E1,1.803749084E-1,1.438059540E0,9.066795502E0,9.181902364E0
1.410946604E1,1.651066589E-1,1.366358643E0,8.943302307E0,9.048582889E0
1.411944504E1,1.600172424E-1,1.309476929E0,8.855435028E0,8.953159492E0
1.412942404E1,1.199006653E-1,1.255738678E0,8.837622070E0,8.927195509E0
1.413940304E1,1.281335449E-1,1.222358093E0,8.841663666E0,8.926678772E0
1.414938204E1,1.163081360E-1,1.158141632E0,8.886270905E0,8.962177761E0
1.415936204E1,1.022373962E-1,1.039588165E0,8.912765808E0,8.973772361E0
1.416934104E1,1.288819885E-1,9.797126770E-1,9.043144684E0,9.096972753E0
1.417932004E1,1.901046753E-1,1.017883301E0,9.154513092E0,9.212889674E0
1.418929904E1,1.999841309E-1,1.030008087E0,9.207053833E0,9.266647214E0
1.419927804E1,1.862127686E-1,1.071022797E0,9.222471771E0,9.286320617E0
1.420925704E1,2.148033142E-1,1.147064667E0,9.160350952E0,9.234388306E0
1.421923604E1,1.908531189E-1,1.211430817E0,9.067394257E0,9.149952357E0
1.422921504E1,1.594184875E-1,1.231189728E0,8.932225342E0,9.018086934E0
1.423919504E1,1.881587219E-1,1.272354126E0,8.803193665E0,8.896657093E0
1.424917404E1,2.067201233E-1,1.356928253E0,8.785680084E0,8.892252922E0
1.425915304E1,2.230361938E-1,1.447340240E0,8.715775452E0,8.837945499E0
1.426913204E1,2.851570129E-1,1.522783356E0,8.661588135E0,8.799050670E0
1.427911104E1,3.409909058E-1,1.532213745E0,8.730594635E0,8.870582644E0
1.428909004E1,4.017645264E-1,1.523082733E0,8.897347870E0,9.035706661E0
1.429906904E1,4.650828552E-1,1.517544250E0,9.108408966E0,9.245666904E0
1.430904904E1,5.453160095E-1,1.518891449E0,9.319470062E0,9.458167001E0
1.431902804E1,5.539979553E-1,1.514400787E0,9.559870148E0,9.694918294E0
1.432900704E1,5.304968262E-1,1.512903900E0,9.782307587E0,9.912812256E0
1.433898604E1,5.376818848E-1,1.534459076E0,9.992620239E0,1.012403703E1
1.434896504E1,5.209167480E-1,1.531914368E0,1.016850449E1,1.029643625E1
1.435894404E1,4.501139832E-1,1.506317596E0,1.029603928E1,1.041537422E1
1.436892304E1,3.161425781E-1,1.495989075E0,1.035741165E1,1.046966597E1
1.437890204E1,2.459385681E-1,1.504671021E0,1.047312103E1,1.058351477E1
1.438888204E1,2.177970886E-1,1.584604797E0,1.054332504E1,1.066396319E1
1.439886104E1,1.929487610E-1,1.670975189E0,1.052850586E1,1.066202715E1
1.440884004E1,1.950444031E-1,1.684896240E0,1.041354492E1,1.055077417E1
1.441881904E1,1.901046753E-1,1.685195618E0,1.037118301E1,1.050892293E1
1.442879804E1,2.237846375E-1,1.726360016E0,1.033810181E1,1.048364190E1
1.443877704E1,2.975811768E-1,1.783092041E0,1.022673340E1,1.038528034E1
1.444875604E1,3.052153015E-1,1.821262665E0,1.009845016E1,1.026590716E1
1.445873504E1,2.164498901E-1,1.754651184E0,9.959539032E0,1.011523945E1
1.446871504E1,1.194515991E-1,1.635349274E0,9.858199768E0,9.993634904E0
1.447869404E1,7.499404907E-2,1.494043121E0,9.915231171E0,1.002744225E1
1.448867304E1,1.338217163E-1,1.418450317E0,1.010249176E1,1.020246290E1
1.449865204E1,2.553689575E-1,1.356928253E0,1.028765671E1,1.037990116E1
1.450863104E1,4.167333984E-1,1.316512299E0,1.046174469E1,1.055248659E1
1.451861004E1,5.999523926E-1,1.337319031E0,1.052147049E1,1.062307424E1
1.452858904E1,7.285350037E-1,1.307530975E0,1.046533722E1,1.057183445E1
1.453856904E1,8.753796387E-1,1.330732727E0,1.031085846E1,1.043316545E1
1.454854804E1,9.618997192E-1,1.447040863E0,1.019978943E1,1.034673295E1
1.455852704E1,9.065148926E-1,1.586401062E0,1.011267059E1,1.027640716E1
1.456850604E1,6.804849243E-1,1.775906982E0,1.003004242E1,1.020875390E1
1.457848504E1,3.565585327E-1,1.867815857E0,9.930948486E0,1.011136034E1
1.458846404E1,-5.852828979E-2,1.811981964E0,9.835746460E0,1.000143053E1
1.459844304E1,-4.149371338E-1,1.663191376E0,9.797575836E0,9.946399884E0
1.460842304E1,-6.954537964E-1,1.391506348E0,9.874515839E0,9.996299763E0
1.461840204E1,-1.009201355E0,1.007854156E0,9.987231445E0,1.008856032E1
1.462838104E1,-1.071621552E0,7.575746155E-1,1.010578491E1,1.019064182E1
1.463836004E1,-8.595126343E-1,7.671546936E-1,1.025128235E1,1.031581689E1
1.464833904E1,-6.119274902E-1,8.533753967E-1,1.037013519E1,1.042316692E1
1.465831804E1,-4.875361633E-1,9.771679688E-1,1.021775208E1,1.027594308E1
1.466829704E1,-5.111869812E-1,1.032403107E0,9.867779846E0,9.934799817E0
1.467827604E1,-6.138734436E-1,1.069974976E0,9.382489014E0,9.463233440E0
1.468825604E1,-6.405180359E-1,1.218765564E0,8.984167328E0,9.089054705E0
1.469823504E1,-5.560935974E-1,1.329535217E0,8.656049652E0,8.775197979E0
1.470821404E1,-3.782633972E-1,1.415456543E0,8.464148712E0,8.590018268E0
1.471819304E1,-6.511459351E-2,1.536105652E0,8.432714081E0,8.571728370E0
1.472817204E1,2.209405518E-1,1.688788147E0,8.500972137E0,8.669910462E0
1.473815104E1,3.854484558E-1,1.742676086E0,8.590635681E0,8.774081824E0
1.474813004E1,4.152365112E-1,1.776655426E0,8.678353271E0,8.868074276E0
1.475810904E1,3.713777161E-1,1.761836243E0,8.776399384E0,8.959194969E0
1.476808992E1,1.583706665E-1,1.645827484E0,8.873098297E0,9.025835295E0
1.477806892E1,-5.254074097E-2,1.544787598E0,9.007967834E0,9.139617812E0
1.478804792E1,-1.511856079E-1,1.485361176E0,9.149723053E0,9.270738204E0
1.479802692E1,-1.752854919E-1,1.455273743E0,9.317374420E0,9.431967597E0
1.480800592E1,-1.416055298E-1,1.442250824E0,9.463620300E0,9.573935907E0
1.481798492E1,-1.191522217E-1,1.430575104E0,9.502389679E0,9.610210819E0
1.482796392E1,-1.484912109E-1,1.392254791E0,9.552385712E0,9.654454714E0
1.483794392E1,-1.799258423E-1,1.328637085E0,9.630972290E0,9.723850938E0
1.484792292E1,-1.514849854E-1,1.240470428E0,9.681716766E0,9.762036372E0
1.485790192E1,-7.649093628E-2,1.208586731E0,9.722132721E0,9.797264791E0
1.486788092E1,4.819976807E-2,1.230141907E0,9.797426147E0,9.874468666E0
1.487785992E1,1.037342834E-1,1.242266693E0,9.786199493E0,9.865276877E0
1.488783892E1,2.040257263E-1,1.258582764E0,9.651479645E0,9.735333400E0
1.489781792E1,2.507286072E-1,1.259480896E0,9.499246216E0,9.585657809E0
1.490779792E1,2.709365845E-1,1.320404205E0,9.353000336E0,9.449629050E0
1.491777692E1,2.574645996E-1,1.399888916E0,9.192084961E0,9.301634422E0
1.492775592E1,1.986369324E-1,1.466051331E0,9.025780792E0,9.146227749E0
1.493773492E1,1.664538574E-1,1.553918610E0,8.923842773E0,9.059654506E0
1.494771392E1,1.408570862E-1,1.650168457E0,8.789871368E0,8.944536619E0
1.495769292E1,7.349716187E-2,1.669627991E0,8.699908447E0,8.858976603E0
1.496767192E1,2.799179077E-2,1.676513672E0,8.690627747E0,8.850903472E0
1.497765092E1,1.040336609E-1,1.706451416E0,8.716823273E0,8.882894090E0
1.498763092E1,1.142124939E-1,1.707499237E0,8.794960785E0,8.959906994E0
1.499760992E1,1.294807434E-1,1.656156006E0,8.919352112E0,9.072731676E0
1.500758892E1,2.242337036E-1,1.671124878E0,9.057065735E0,9.212674901E0
1.501756792E1,3.049159241E-1,1.731150055E0,9.130862274E0,9.298521393E0
1.502754692E1,3.332070923E-1,1.739981689E0,9.193432159E0,9.362572195E0
1.503752592E1,4.034111023E-1,1.821861420E0,9.236392822E0,9.422996971E0
1.504750492E1,4.361929321E-1,1.951940918E0,9.274862823E0,9.488067138E0
1.505748492E1,3.682342529E-1,1.945055237E0,9.235943756E0,9.445712964E0
1.506746392E1,2.046244812E-1,1.873953094E0,9.174272003E0,9.365940325E0
1.507744292E1,3.652404785E-2,1.835034027E0,9.192534027E0,9.373972782E0
1.508742192E1,-5.343887329E-2,1.780697021E0,9.274413757E0,9.443965700E0
1.509740092E1,-1.345701599E-1,1.673370209E0,9.420060883E0,9.568480758E0
1.510737992E1,-1.109193420E-1,1.565145264E0,9.616901550E0,9.744063743E0
1.511735892E1,-1.083746338E-1,1.410666504E0,9.851613464E0,9.952688727E0
1.512733792E1,-1.297801208E-1,1.283131714E0,1.010069550E1,1.018269706E1
1.513731792E1,-1.207987976E-1,1.246308289E0,1.033316208E1,1.040875186E1
1.514729692E1,-1.142124939E-1,1.313668213E0,1.060409866E1,1.068576984E1
1.515727592E1,-7.783813477E-2,1.452130280E0,1.085482727E1,1.095180424E1
1.516725492E1,-6.391708374E-2,1.675166473E0,1.095541809E1,1.108293525E1
1.517723392E1,-2.439926147E-1,1.792672119E0,1.090467361E1,1.105373748E1
1.518721292E1,-4.182302856E-1,1.806443481E0,1.071576645E1,1.087500829E1
1.519719192E1,-5.224136353E-1,1.831291809E0,1.053808594E1,1.070877215E1
1.520717192E1,-5.760021973E-1,1.874252472E0,1.044408142E1,1.062654401E1
1.521715092E1,-6.075865173E-1,1.865720215E0,1.042986099E1,1.061282590E1
1.522712992E1,-6.730004883E-1,1.719624023E0,1.052970337E1,1.069040175E1
1.523710892E1,-6.571334839E-1,1.612297211E0,1.070843170E1,1.084904771E1
1.524708792E1,-5.757028198E-1,1.548380127E0,1.083985840E1,1.096501003E1
1.525706692E1,-4.408332825E-1,1.477128296E0,1.092458221E1,1.103280284E1
1.526704592E1,-2.588117981E-1,1.489103394E0,1.084464844E1,1.094946630E1
1.527702492E1,-1.191522217E-1,1.452579346E0,1.062700104E1,1.072647822E1
1.528700492E1,-9.235794067E-2,1.319655762E0,1.032283356E1,1.040725295E1
1.529698392E1,-9.969268799E-2,1.200802917E0,1.000968475E1,1.008194699E1
1.530696292E1,-6.107299805E-2,1.141526184E0,9.833201752E0,9.899427692E0
1.531694192E1,-2.454895020E-2,1.066382446E0,9.750124512E0,9.808297618E0
1.532692092E1,2.769241333E-2,9.589059448E-1,9.728269958E0,9.775454151E0
1.533689992E1,1.210981750E-1,8.541238403E-1,9.784103851E0,9.822060908E0
1.534687892E1,2.631527710E-1,8.140072632E-1,9.819580078E0,9.856774833E0
1.535685892E1,3.896397400E-1,7.848179626E-1,9.896071014E0,9.934786353E0
1.536683792E1,4.843927002E-1,7.990383911E-1,9.886940002E0,9.930995985E0
1.537681692E1,4.754113770E-1,7.708969116E-1,9.772128754E0,9.814010312E0
1.538679592E1,3.643423462E-1,7.979905701E-1,9.688003693E0,9.727638452E0
1.539677492E1,2.598596191E-1,9.051676941E-1,9.634564819E0,9.680480093E0
1.540675392E1,1.017883301E-1,9.692344666E-1,9.588311005E0,9.637711566E0
1.541673292E1,-1.646575928E-3,9.630972290E-1,9.527836761E0,9.576389316E0
1.542671292E1,6.795867920E-2,1.039438477E0,9.483528900E0,9.540564508E0
1.543669192E1,1.556762695E-1,1.106948090E0,9.465715942E0,9.531492405E0
1.544667092E1,1.469943237E-1,1.063987427E0,9.407037964E0,9.468159263E0
1.545664992E1,8.532257080E-2,1.001716919E0,9.395362244E0,9.448997217E0
1.546662892E1,-3.397933960E-2,9.190887451E-1,9.497749329E0,9.542175906E0
1.547660792E1,-6.152206421E-2,7.882608032E-1,9.592801666E0,9.625330325E0
1.548658692E1,1.224453735E-1,8.598120117E-1,9.848020935E0,9.886242254E0
1.549656592E1,3.626957703E-1,9.776170349E-1,1.001237915E1,1.006652967E1
1.550654592E1,5.221142578E-1,1.062191162E0,1.003138962E1,1.010097179E1
1.551652492E1,6.354286194E-1,1.110839996E0,9.928852844E0,1.001098666E1
1.552650392E1,6.502478027E-1,1.183289337E0,9.712402954E0,9.805802721E0
1.553648292E1,5.791456604E-1,1.262474670E0,9.401200104E0,9.503252884E0
1.554646192E1,4.167333984E-1,1.258582764E0,9.065298615E0,9.161732165E0
1.555644092E1,1.594184875E-1,1.134490814E0,8.830736389E0,8.904739684E0
1.556641992E1,-3.487747192E-2,1.023122406E0,8.687783661E0,8.747890079E0
1.557639992E1,-1.324745178E-1,8.840615845E-1,8.709638214E0,8.755393321E0
1.558637892E1,-7.604187012E-2,7.749385071E-1,8.840615845E0,8.874840876E0
1.559635792E1,1.410067749E-1,8.216413879E-1,9.024583282E0,9.063006174E0
1.560633692E1,3.041674805E-1,8.659492493E-1,9.157806244E0,9.203684108E0
1.561631592E1,4.679269409E-1,8.909472656E-1,9.290430450E0,9.344776113E0
1.562629492E1,6.020480347E-1,9.851014709E-1,9.302854614E0,9.374219472E0
1.563627392E1,5.819897461E-1,1.058149567E0,9.198072510E0,9.277010858E0
1.564625292E1,4.605921936E-1,1.143921204E0,9.058263245E0,9.141817866E0
1.565623292E1,3.516188049E-1,1.281335449E0,8.922645264E0,9.021034022E0
1.566621192E1,2.764750671E-1,1.397942963E0,8.785979462E0,8.900793116E0
1.567619092E1,2.228865051E-1,1.490300903E0,8.650660858E0,8.780922984E0
1.568616992E1,1.270857239E-1,1.530267792E0,8.602910156E0,8.738874839E0
1.569614892E1,7.828720093E-2,1.499431915E0,8.647218018E0,8.776605517E0
1.570612792E1,1.236428833E-1,1.500030670E0,8.837921448E0,8.965167879E0
1.571610692E1,1.990859985E-1,1.550775146E0,9.063801727E0,9.197664950E0
1.572608692E1,1.911524963E-1,1.559008026E0,9.202413483E0,9.335494588E0
1.573606592E1,1.064286804E-1,1.480421448E0,9.260043640E0,9.378239864E0
1.574604492E1,1.826202393E-2,1.398990784E0,9.319919128E0,9.424351504E0
1.575602392E1,-3.248245239E-2,1.369053040E0,9.399403839E0,9.498639580E0
1.576600292E1,-2.395019531E-3,1.385518799E0,9.521549835E0,9.621828274E0
1.577598167E1,1.886077881E-2,1.417402496E0,9.646090851E0,9.749689958E0
1.578596067E1,-3.382965088E-2,1.387165375E0,9.757309570E0,9.855478795E0
1.579594067E1,-1.178050232E-1,1.336271210E0,9.867779846E0,9.958542959E0
1.580591967E1,-1.546284485E-1,1.339414673E0,1.001642075E1,1.010676141E1
1.581589867E1,-1.495390320E-1,1.348994751E0,1.017000137E1,1.026016943E1
1.582587767E1,-1.606159973E-1,1.284778290E0,1.025457550E1,1.033599397E1
1.583585667E1,-4.370910645E-2,1.272653503E0,1.029409332E1,1.037255585E1
1.584583567E1,7.978408813E-2,1.251846771E0,1.032253418E1,1.039847093E1
1.585581467E1,2.207908630E-1,1.315165100E0,1.040531204E1,1.049042070E1
1.586579367E1,2.661465454E-1,1.409169617E0,1.047267197E1,1.057040449E1
1.587577367E1,3.951782227E-1,1.623523865E0,1.042791504E1,1.056093782E1
1.588575267E1,3.574566650E-1,1.752854919E0,1.035127441E1,1.050472073E1
1.589573167E1,1.267863464E-1,1.715283051E0,1.014650024E1,1.029124569E1
1.590571067E1,-3.682342529E-2,1.698517914E0,9.967622223E0,1.011137042E1
1.591568967E1,-1.164578247E-1,1.730551300E0,9.932445374E0,1.008274969E1
1.592566867E1,-1.070274353E-1,1.788181458E0,9.952952728E0,1.011287871E1
1.593564767E1,-2.709365845E-2,1.874551849E0,1.004276596E1,1.021625307E1
1.594562767E1,1.405577087E-1,1.938917999E0,1.019679565E1,1.038045284E1
1.595560667E1,1.016386414E-1,1.786235504E0,1.021969803E1,1.037512388E1
1.596558567E1,7.768844604E-2,1.652713165E0,1.019365219E1,1.032705385E1
1.597556467E1,2.312690735E-1,1.715432739E0,1.025487488E1,1.039993527E1
1.598554367E1,2.281256104E-1,1.707648926E0,1.031235535E1,1.045527517E1
1.599552267E1,1.637594604E-1,1.609453125E0,1.026026367E1,1.038701917E1
1.600550167E1,2.350112915E-2,1.476828918E0,1.026505371E1,1.037077160E1
1.601548167E1,-1.773811340E-1,1.290616150E0,1.024918671E1,1.033164954E1
1.602546067E1,-4.014651489E-1,1.010847931E0,1.018736526E1,1.024526226E1
1.603543967E1,-6.854246521E-1,6.536906433E-1,1.011671219E1,1.016095389E1
1.604541867E1,-8.563691711E-1,3.263214111E-1,1.003168900E1,1.007346206E1
1.605539767E1,-8.693920898E-1,1.089733887E-1,9.994865570E0,1.003319767E1
1.606537667E1,-7.719447327E-1,3.742218018E-3,9.979148254E0,1.000896161E1
1.607535567E1,-6.053411865E-1,1.945953369E-2,9.944719849E0,9.963145562E0
1.608533567E1,-4.230203247E-1,1.697470093E-1,9.871222687E0,9.881740615E0
1.609531467E1,-3.079096985E-1,3.719764709E-1,9.771529999E0,9.783454063E0
1.610529367E1,-1.664538574E-1,6.500981140E-1,9.641450500E0,9.664776366E0
1.611527267E1,-6.301895142E-2,9.527687073E-1,9.481133881E0,9.529094357E0
1.612525167E1,-9.864486694E-2,1.118324432E0,9.361682281E0,9.428757897E0
1.613523067E1,-1.366658020E-1,1.126856689E0,9.254954224E0,9.324304865E0
1.614520967E1,-3.876937866E-2,1.174757080E0,9.240135040E0,9.314593540E0
1.615518867E1,1.146615601E-1,1.286125488E0,9.307494965E0,9.396633895E0
1.616516867E1,2.243833923E-1,1.247505798E0,9.428892517E0,9.513707622E0
1.617514767E1,3.570075989E-1,1.201701050E0,9.530231781E0,9.612328419E0
1.618512667E1,4.863386536E-1,1.168769531E0,9.606423340E0,9.689474541E0
1.619510567E1,5.566923523E-1,1.098864899E0,9.675729218E0,9.753827266E0
1.620508467E1,5.580395508E-1,1.079255676E0,9.689350891E0,9.765230240E0
1.621506367E1,5.345384216E-1,9.816586304E-1,9.561816101E0,9.626926412E0
1.622504267E1,4.119433594E-1,8.657995605E-1,9.402098236E0,9.450860143E0
1.623502267E1,1.841171265E-1,6.920109558E-1,9.256002045E0,9.283660492E0
1.624500167E1,3.293151855E-3,5.604345703E-1,9.249116364E0,9.266080685E0
1.625498067E1,-6.316864014E-2,5.511538696E-1,9.373657379E0,9.390059293E0
1.626495967E1,-6.077362061E-2,5.523513794E-1,9.540111237E0,9.556281070E0
1.627493867E1,-3.876937866E-2,6.394702148E-1,9.678872681E0,9.700051628E0
1.628491767E1,-1.203497314E-1,6.909631348E-1,9.658664703E0,9.684096136E0
1.629489667E1,-2.165995789E-1,7.216493225E-1,9.577084351E0,9.606676729E0
1.630487667E1,-1.634600830E-1,8.053253174E-1,9.441017303E0,9.476712288E0
1.631485567E1,-1.008901978E-1,9.026229858E-1,9.251361694E0,9.295837794E0
1.632483467E1,-2.948867798E-2,8.916957092E-1,9.140442352E0,9.183881381E0
1.633481367E1,1.131646729E-1,9.223818970E-1,9.095835114E0,9.143183856E0
1.634479267E1,2.633024597E-1,9.663903809E-1,9.134454803E0,9.189205793E0
1.635477167E1,3.484753418E-1,9.645941162E-1,9.171727295E0,9.228892590E0
1.636475067E1,4.819976807E-1,9.939331055E-1,9.186845856E0,9.253019051E0
1.637472967E1,7.213499451E-1,1.080303497E0,9.196725311E0,9.288011512E0
1.638470967E1,8.985813904E-1,1.152603149E0,9.153016205E0,9.268961548E0
1.639468867E1,9.346563721E-1,1.184187469E0,9.083410950E0,9.207835629E0
1.640466767E1,8.717871094E-1,1.193468170E0,9.012308807E0,9.132693419E0
1.641464667E1,7.777825928E-1,1.212628326E0,8.924142151E0,9.039675124E0
1.642462567E1,7.243437195E-1,1.194366302E0,8.874595184E0,8.983853537E0
1.643460467E1,6.527925110E-1,1.162931671E0,8.876840515E0,8.976460642E0
1.644458367E1,6.432124329E-1,1.137185211E0,8.959169312E0,9.053928826E0
1.645456367E1,7.384144592E-1,1.183588715E0,9.166188812E0,9.271739616E0
1.646454267E1,7.319778442E-1,1.197809143E0,9.356592865E0,9.461309019E0
1.647452167E1,7.255412292E-1,1.257534943E0,9.511071625E0,9.621241482E0
1.648450067E1,6.228547668E-1,1.320703583E0,9.703421631E0,9.812675342E0
1.649447967E1,4.331991577E-1,1.286574554E0,9.825118561E0,9.918462095E0
1.650445867E1,2.749781799E-1,1.309327240E0,9.821675720E0,9.912379370E0
1.651443767E1,1.457968140E-1,1.372645569E0,9.807006226E0,9.903675261E0
1.652441767E1,2.020797729E-2,1.396146698E0,9.730215912E0,9.829889911E0
1.653439667E1,-2.859054565E-2,1.374591522E0,9.623487854E0,9.721205571E0
1.654437567E1,-2.993774414E-3,1.399739227E0,9.583520966E0,9.685202784E0
1.655435467E1,6.990463257E-2,1.475481720E0,9.637857971E0,9.750396876E0
1.656433367E1,1.419049072E-1,1.571132813E0,9.706714783E0,9.834068700E0
1.657431267E1,1.639091492E-1,1.614542542E0,9.817185059E0,9.950413876E0
1.658429167E1,6.571334839E-2,1.564546509E0,1.001612137E1,1.013779124E1
1.659427167E1,-9.026229858E-2,1.396446075E0,1.022508682E1,1.032039774E1
1.660425067E1,-2.900967407E-1,1.258283386E0,1.057206528E1,1.065063366E1
1.661422967E1,-2.755769348E-1,1.218615875E0,1.100466568E1,1.107536158E1
1.662420867E1,-2.333647156E-1,1.204994202E0,1.140583145E1,1.147168084E1
1.663418767E1,-1.136137390E-1,1.209484863E0,1.159563675E1,1.165909745E1
1.664416667E1,-5.538482666E-3,1.231938171E0,1.156629776E1,1.163172155E1
1.665414567E1,4.281097412E-2,1.232087860E0,1.130688721E1,1.137389870E1
1.666412567E1,2.065704346E-2,1.229393463E0,1.087383774E1,1.094313402E1
1.667410467E1,-2.035766602E-2,1.245559845E0,1.044273422E1,1.051677383E1
