"Time (s)","Gyroscope x (rad/s)","Gyroscope y (rad/s)","Gyroscope z (rad/s)","Absolute (rad/s)"
-1.347958227E-3,5.581209064E-2,-3.514205292E-2,-2.313372307E-2,6.989365127E-2
8.631041739E-3,1.708946191E-2,-5.945298448E-2,-2.697213739E-2,6.748483732E-2
1.861004170E-2,-3.507091850E-2,-7.548972964E-2,-1.828011125E-2,8.522224518E-2
2.858904167E-2,-8.854559809E-2,-9.836655110E-2,-3.100094153E-3,1.323854671E-1
3.856804175E-2,-1.171993166E-1,-1.258539557E-1,6.235214882E-3,1.720865361E-1
4.854604171E-2,-1.332581788E-1,-1.410451531E-1,1.202013344E-2,1.944118336E-1
5.852504168E-2,-1.337135881E-1,-1.463246793E-1,1.450572908E-2,1.987477084E-1
6.850404176E-2,-1.184707135E-1,-1.252449602E-1,8.359153755E-3,1.726021016E-1
7.848304173E-2,-8.562060446E-2,-8.781489730E-2,-1.760195242E-3,1.226598646E-1
8.846204169E-2,-5.240885541E-2,-4.649328813E-2,-4.543997347E-3,7.020656578E-2
9.844104177E-2,-1.962699927E-2,-1.068983600E-2,-2.357308404E-4,2.235055398E-2
1.084200417E-1,-1.323360251E-3,2.579547092E-2,1.419274323E-2,2.947187749E-2
1.183990417E-1,2.255587839E-2,3.272967786E-2,2.011095360E-2,4.454716508E-2
1.283780417E-1,4.305582866E-2,2.710108832E-2,1.698972844E-2,5.363696712E-2
1.383570418E-1,5.011513084E-2,2.160833590E-2,9.986140765E-3,5.548125383E-2
1.483360417E-1,4.312859476E-2,1.528093033E-2,-2.490235958E-3,4.582339787E-2
1.583150417E-1,2.984356135E-2,1.129161753E-2,-2.194422670E-2,3.872580362E-2
1.682940418E-1,1.697862893E-2,3.772715107E-3,-3.886621818E-2,4.258039614E-2
1.782730417E-1,4.580601584E-3,-4.691864364E-3,-6.030572578E-2,6.066115779E-2
1.882510417E-1,-2.672251547E-3,-2.012990881E-3,-7.957529277E-2,7.964559171E-2
1.982300418E-1,-4.784177523E-3,4.292033613E-3,-8.767769486E-2,8.791295742E-2
2.082090417E-1,-3.293606453E-3,1.809701440E-3,-8.537166566E-2,8.545433962E-2
2.181880417E-1,1.992554171E-3,-1.567440573E-3,-7.180685550E-2,7.185159455E-2
2.281670417E-1,4.168623127E-3,-6.944895256E-3,-5.331732333E-2,5.392908265E-2
2.381460418E-1,8.982453728E-4,-1.252735220E-2,-2.838034928E-2,3.103523196E-2
2.481250417E-1,-6.366858259E-3,-1.892133430E-2,-3.710860619E-4,1.996726022E-2
2.581040417E-1,-1.605226472E-2,-2.315370180E-2,2.151563577E-2,3.544984756E-2
2.680830418E-1,-2.437730692E-2,-1.602894627E-2,3.637847304E-2,4.663232261E-2
2.780620417E-1,-2.916722931E-2,-1.259479113E-2,4.524067417E-2,5.528177483E-2
2.880410417E-1,-3.238965571E-2,-4.503309261E-3,5.037365109E-2,6.005725864E-2
2.980200417E-1,-3.109593317E-2,5.229002796E-3,4.969128221E-2,5.885170395E-2
3.079980417E-1,-2.784767561E-2,1.235722005E-2,4.808725789E-2,5.692607747E-2
3.179770417E-1,-2.039985731E-2,1.922478527E-2,4.192863032E-2,5.043566781E-2
3.279560417E-1,-1.567887142E-2,2.758871019E-2,3.745718300E-2,4.909179664E-2
3.379350418E-1,-1.111527719E-2,2.424591035E-2,3.256309405E-2,4.209238232E-2
3.479140417E-1,-1.065934449E-2,1.532325428E-2,2.908340842E-2,3.455818849E-2
3.578930417E-1,-1.025109179E-2,4.017800093E-3,2.224580757E-2,2.482143338E-2
3.678720418E-1,-7.388193160E-3,-7.143774070E-3,9.769165888E-3,1.417940437E-2
3.778510417E-1,-4.680830054E-3,-8.874164894E-3,-3.964090720E-3,1.078772394E-2
3.878300417E-1,-7.836143486E-3,-7.819818333E-3,-1.728921570E-2,2.052977552E-2
3.978090417E-1,-9.682165459E-3,-7.633774541E-3,-2.439173870E-2,2.733085726E-2
4.077880417E-1,-8.377214894E-3,-1.248019561E-2,-3.062087111E-2,3.411115301E-2
4.177670417E-1,-6.213983055E-3,-1.378163043E-2,-3.548919037E-2,3.857498614E-2
4.277460417E-1,-3.256276250E-3,-1.662934944E-2,-4.146505892E-2,4.479385794E-2
4.377240418E-1,4.854423460E-4,-2.049739659E-2,-4.344558343E-2,4.804058327E-2
4.477030417E-1,-1.603008481E-3,-1.525389869E-2,-4.361842573E-2,4.623654533E-2
4.576820417E-1,-5.979048088E-3,-1.093856059E-2,-4.014746472E-2,4.203831642E-2
4.676610418E-1,-1.387532055E-2,-6.846613716E-3,-3.430848569E-2,3.763605758E-2
4.776400417E-1,-2.495860122E-2,-5.561307538E-3,-2.487749793E-2,3.567561940E-2
4.876190417E-1,-3.658436239E-2,2.705943771E-3,-1.213613525E-2,3.863966203E-2
4.975980417E-1,-4.372458532E-2,5.191932432E-3,-9.007228655E-4,4.404096759E-2
5.075770417E-1,-4.588361084E-2,-3.623663913E-3,9.734344669E-3,4.704459746E-2
5.175560417E-1,-4.885598272E-2,-1.526154857E-2,1.523097698E-2,5.340228995E-2
5.275350417E-1,-5.706517771E-2,-1.659073308E-2,1.840280183E-2,6.221213745E-2
5.375140418E-1,-6.316781044E-2,-1.051326469E-2,2.175825089E-2,6.763225926E-2
5.474930417E-1,-6.357154250E-2,-1.068290882E-2,1.933743618E-2,6.730083205E-2
5.574720417E-1,-5.993073434E-2,-1.014681347E-2,1.411950681E-2,6.240201290E-2
5.674500418E-1,-4.923041910E-2,-1.336790621E-2,1.489102468E-2,5.314205206E-2
5.774290417E-1,-3.645124286E-2,-1.307788864E-2,1.568304747E-2,4.178136254E-2
5.874080417E-1,-2.050183527E-2,-1.153591834E-2,2.179979533E-2,3.207232043E-2
5.973870417E-1,-2.773714717E-3,-7.456557360E-3,2.484705113E-2,2.608964720E-2
6.073660417E-1,1.004541107E-2,-3.100691363E-3,2.448539436E-2,2.664693429E-2
6.173450417E-1,2.166986838E-2,4.065348767E-3,1.593957655E-2,2.720625584E-2
6.273240417E-1,2.549949288E-2,4.592654761E-3,4.000359215E-3,2.621677877E-2
6.373030418E-1,2.182030492E-2,2.322701039E-3,-3.824140644E-3,2.227430579E-2
6.472820417E-1,1.440792903E-2,-7.480927277E-3,-1.035660878E-2,1.925648040E-2
6.572610417E-1,4.037338775E-3,-2.218503132E-2,-1.859616302E-2,2.922829106E-2
6.672400418E-1,-5.431530531E-3,-2.317306399E-2,-2.438374609E-2,3.407432306E-2
6.772188334E-1,-1.246759854E-2,-1.238386519E-2,-2.824685909E-2,3.326689314E-2
6.871968334E-1,-1.046436932E-2,-7.130514365E-3,-3.353749588E-2,3.584844335E-2
6.971758334E-1,-8.113875985E-3,-2.366921864E-3,-3.536362201E-2,3.635963510E-2
7.071548334E-1,-6.179356016E-3,-5.220498424E-3,-3.188580275E-2,3.289593381E-2
7.171338334E-1,-2.389687113E-3,-8.370021358E-3,-3.658195585E-2,3.760328916E-2
7.271128334E-1,-1.121223439E-3,-8.091455325E-3,-4.015005752E-2,4.097262392E-2
7.370918334E-1,-1.008844236E-3,-8.109167218E-3,-4.109028727E-2,4.189496470E-2
7.470708333E-1,-3.269069130E-3,-4.626551177E-3,-3.814136982E-2,3.855977023E-2
7.570498334E-1,-9.379670024E-3,-4.527675454E-3,-3.013144433E-2,3.188074642E-2
7.670288334E-1,-1.605488360E-2,-2.172376029E-3,-2.207751200E-2,2.738421153E-2
7.770078334E-1,-2.445127815E-2,-3.835648298E-3,-9.371972643E-3,2.646528051E-2
7.869868334E-1,-3.378193080E-2,-6.267912686E-3,-2.188060898E-5,3.435849323E-2
7.969658334E-1,-3.994635865E-2,-9.593671188E-3,1.581806876E-2,4.402228294E-2
8.069448334E-1,-4.509025440E-2,-1.153165475E-2,2.864651754E-2,5.465101161E-2
8.169238333E-1,-4.708522931E-2,-1.479162835E-2,3.810792789E-2,6.235403159E-2
8.269018334E-1,-4.593580961E-2,-9.637614712E-3,4.385769367E-2,6.423767988E-2
8.368808334E-1,-3.711732104E-2,-6.010198034E-3,3.931520507E-2,5.440131755E-2
8.468598333E-1,-2.274264209E-2,-2.141157631E-3,2.942342684E-2,3.724983721E-2
8.568388334E-1,-1.126094908E-2,8.927074261E-3,2.021301910E-2,2.480055988E-2
8.668178334E-1,-6.119184196E-3,1.763268188E-2,1.784253865E-2,2.582076821E-2
8.767968334E-1,-1.277545746E-2,2.173595503E-2,2.366993390E-2,3.458221834E-2
8.867758334E-1,-1.996998675E-2,2.124327049E-2,2.843512781E-2,4.072632325E-2
8.967548334E-1,-2.582764067E-2,2.076535672E-2,2.655160800E-2,4.246474949E-2
9.067338334E-1,-2.086111158E-2,1.704172604E-2,1.756929979E-2,3.216032801E-2
9.167128333E-1,-1.314752363E-2,1.261455659E-2,4.575668834E-3,1.878619601E-2
9.266918334E-1,-5.734879989E-3,1.322894730E-2,-7.280724589E-3,1.615248729E-2
9.366708334E-1,-7.626812905E-3,1.409653295E-2,-1.281710342E-2,2.052215038E-2
9.466498333E-1,-1.957615092E-2,1.454927027E-2,-9.625570849E-3,2.622133796E-2
9.566278334E-1,-2.942739055E-2,1.441785879E-2,-1.866319682E-3,3.282269208E-2
9.666068334E-1,-3.429911286E-2,1.406871900E-2,5.916502327E-3,3.754148368E-2
9.765858334E-1,-3.184849396E-2,4.135853611E-3,1.282347832E-2,3.458140323E-2
9.865648334E-1,-2.142594568E-2,-9.751198813E-3,1.561500411E-2,2.824863502E-2
9.965438334E-1,-7.868884131E-3,-1.692842692E-2,1.389300451E-2,2.327029329E-2
1.006522833E0,6.731630303E-3,-1.408949587E-2,1.039840467E-2,1.876047868E-2
1.016501833E0,1.570093445E-2,-9.014697745E-3,6.512717810E-3,1.924057201E-2
1.026480833E0,2.161847800E-2,3.767144168E-3,3.646357451E-3,2.224513180E-2
1.036459833E0,2.251758054E-2,1.472565904E-2,2.848605160E-3,2.705551735E-2
1.046438833E0,2.379589714E-2,1.539171487E-2,2.486681566E-3,2.844878192E-2
1.056417833E0,2.310234495E-2,1.196187828E-2,-3.712954000E-3,2.627909628E-2
1.066396833E0,2.671039477E-2,1.152085885E-2,-7.058150601E-3,2.993313995E-2
1.076375833E0,2.522886544E-2,1.194190048E-2,-7.307156455E-3,2.885306178E-2
1.086353833E0,2.572474629E-2,1.144335791E-2,-6.032833830E-3,2.879423720E-2
1.096332833E0,2.281424776E-2,5.432222039E-3,-4.931751639E-3,2.396499763E-2
1.106311833E0,2.136229165E-2,-5.710443947E-3,-1.119703171E-3,2.214069578E-2
1.116290833E0,1.702528447E-2,-1.471274160E-2,4.617014434E-3,2.297045709E-2
1.126269833E0,1.063369680E-2,-1.720332913E-2,5.538201891E-3,2.096906581E-2
1.136248833E0,5.734542385E-3,-2.231520042E-2,6.214311812E-3,2.386358769E-2
1.146227833E0,2.110246802E-3,-3.103252873E-2,9.763773531E-3,3.260064807E-2
1.156206833E0,-3.323822748E-4,-2.578070015E-2,1.532598492E-2,2.999401260E-2
1.166185833E0,-3.004598198E-3,-1.806392521E-2,2.320414782E-2,2.955952435E-2
1.176164833E0,-1.675937325E-3,-1.391917840E-2,2.656525560E-2,3.003772791E-2
1.186143833E0,6.843248382E-3,-1.010047086E-2,2.483473346E-2,2.766972255E-2
1.196122833E0,1.056744345E-2,-3.666930832E-3,2.260047197E-2,2.521702949E-2
1.206100833E0,1.221088041E-2,1.999476925E-3,1.882970333E-2,2.253133897E-2
1.216079833E0,1.099687163E-2,5.578931421E-3,1.843268611E-2,2.217700562E-2
1.226058833E0,6.306779105E-3,7.155789528E-3,2.046760730E-2,2.258104814E-2
1.236037833E0,7.351635955E-3,7.796434220E-3,1.942805201E-2,2.218738702E-2
1.246016833E0,1.296211779E-2,6.907470990E-3,1.450253557E-2,2.064105596E-2
1.255995833E0,2.129435912E-2,-3.567640670E-4,6.870913785E-3,2.237825880E-2
1.265974833E0,2.891233191E-2,-1.310175750E-3,-2.857080894E-3,2.908268227E-2
1.275953833E0,3.058773838E-2,4.651313648E-3,-9.138946421E-3,3.226088653E-2
1.285932833E0,3.352067992E-2,4.703511484E-3,-1.764721423E-2,3.817306869E-2
1.295911833E0,3.243781626E-2,4.675143864E-3,-2.379152365E-2,4.049821591E-2
1.305890833E0,3.040342964E-2,-4.243782721E-3,-2.551192604E-2,3.991536792E-2
1.315869833E0,2.252285928E-2,-1.616256312E-2,-2.379332110E-2,3.653258498E-2
1.325848833E0,1.057112589E-2,-2.373472974E-2,-1.697722636E-2,3.103727297E-2
1.335827833E0,2.512682229E-3,-2.251719311E-2,-1.142526884E-2,2.537467882E-2
1.345805833E0,8.253033739E-4,-2.259282768E-2,-8.367693983E-3,2.410674783E-2
1.355784833E0,9.360220283E-3,-2.293437347E-2,-7.031986956E-3,2.574971943E-2
1.365763833E0,2.201183513E-2,-2.440523729E-2,-9.845084511E-3,3.430833983E-2
1.375742833E0,3.498780727E-2,-2.064292692E-2,-1.424043067E-2,4.304726420E-2
1.385721833E0,4.539277777E-2,-1.276183501E-2,-1.776592247E-2,5.038845808E-2
1.395700833E0,4.655389488E-2,-5.769454874E-4,-2.400344424E-2,5.238094434E-2
1.405679833E0,4.323320091E-2,7.564870641E-3,-2.043347619E-2,4.841346794E-2
1.415658833E0,4.120656475E-2,-3.424938768E-6,-1.742690429E-2,4.474011605E-2
1.425637833E0,3.570554033E-2,-1.107738167E-2,-1.905196533E-2,4.195916321E-2
1.435616833E0,3.085026331E-2,-1.886308193E-2,-1.958759129E-2,4.112454667E-2
1.445595833E0,1.906151325E-2,-2.335716784E-2,-1.858890615E-2,3.541815931E-2
1.455574833E0,8.216342889E-3,-1.758889109E-2,-1.411759108E-2,2.400382799E-2
1.465552833E0,-9.214312769E-3,-6.778585725E-3,-9.877305478E-3,1.511336983E-2
1.475531833E0,-1.754493453E-2,-8.583753370E-4,-1.012708060E-3,1.759508776E-2
1.485510833E0,-2.158841304E-2,-4.027004354E-3,3.100277856E-3,2.217854965E-2
1.495489833E0,-1.832174696E-2,-8.180595003E-3,4.931333009E-3,2.066220200E-2
1.505468833E0,-1.199966948E-2,-1.473276969E-2,8.448303677E-3,2.079472062E-2
1.515447833E0,-9.462747723E-3,-1.398642175E-2,1.320031472E-2,2.143389597E-2
1.525426833E0,-1.175173465E-2,-8.382065222E-3,1.398727857E-2,2.009990663E-2
1.535405833E0,-1.100899186E-2,-4.349510185E-3,1.530501153E-2,1.934837251E-2
1.545384833E0,-6.711448543E-3,-4.257364664E-3,1.453881990E-2,1.656942907E-2
1.555363833E0,-1.102016773E-3,-4.171140958E-3,1.191460807E-2,1.267165117E-2
1.565342833E0,3.711913014E-3,-1.007571584E-3,9.541731328E-3,1.028776630E-2
1.575321833E0,4.515128676E-3,5.343403667E-3,1.297627576E-2,1.474184799E-2
1.585300833E0,7.435018197E-3,1.003536023E-2,1.314778347E-2,1.813428137E-2
1.595279833E0,1.394904684E-2,1.616887003E-2,8.971947245E-3,2.316255822E-2
1.605257833E0,1.926178671E-2,1.515447162E-2,6.873410894E-5,2.450875684E-2
1.615236833E0,2.328108437E-2,6.101270206E-3,-1.077053137E-2,2.636738011E-2
1.625215833E0,1.769776642E-2,8.388638962E-4,-2.164874598E-2,2.797468198E-2
1.635194833E0,5.429654848E-3,-7.136103697E-3,-2.491471358E-2,2.647920090E-2
1.645173833E0,-9.782321751E-3,-7.564606145E-3,-2.069307119E-2,2.410643649E-2
1.655152833E0,-2.175031975E-2,-5.188139621E-3,-1.280252263E-2,2.576621407E-2
1.665131833E0,-2.944073081E-2,-1.102285832E-2,-2.346153138E-3,3.152403005E-2
1.675110833E0,-2.833766676E-2,-1.372876950E-2,1.071039401E-2,3.325981072E-2
1.685089208E0,-2.358019538E-2,-1.025680546E-2,2.125837468E-2,3.336384520E-2
1.695068208E0,-1.338587329E-2,-5.729896016E-3,2.621551789E-2,2.998777568E-2
1.705047208E0,-3.783845343E-3,-1.074157655E-3,2.744430117E-2,2.772473565E-2
1.715026208E0,1.710108481E-4,8.103379980E-3,2.526636049E-2,2.653456207E-2
1.725004208E0,3.255483927E-3,1.324860752E-2,2.479844354E-2,2.830347291E-2
1.734983208E0,1.832469250E-3,1.048874855E-2,2.415689267E-2,2.639937979E-2
1.744962208E0,-5.756208673E-3,1.340011600E-2,2.542535588E-2,2.931118846E-2
1.754941208E0,-1.170596015E-2,1.254118420E-2,2.967183292E-2,3.427431214E-2
1.764920208E0,-1.529004239E-2,1.019227691E-2,2.952349558E-2,3.477505854E-2
1.774899208E0,-1.469187811E-2,1.047151349E-2,2.287105285E-2,2.913054987E-2
1.784878208E0,-1.366522908E-2,6.225902587E-3,1.696762443E-2,2.265834565E-2
1.794857208E0,-1.449400373E-2,6.223505363E-3,1.661662012E-2,2.291113763E-2
1.804836208E0,-1.296588220E-2,9.501856752E-3,1.097497810E-2,1.946405731E-2
1.814815208E0,-7.337028161E-3,7.960218936E-3,1.185242366E-2,1.605232115E-2
1.824794208E0,9.653761517E-4,5.373490043E-3,1.108916197E-2,1.236025322E-2
1.834773208E0,7.856843993E-3,9.618327022E-4,8.800840937E-3,1.183680366E-2
1.844752208E0,1.558267511E-2,-2.853944432E-3,7.749157958E-3,1.763559502E-2
1.854730208E0,1.812542230E-2,-2.719465178E-3,3.869198496E-3,1.873224817E-2
1.864709208E0,2.006074041E-2,-4.387402907E-3,-1.528762514E-3,2.059173924E-2
1.874688208E0,1.528632268E-2,9.280950762E-4,-8.828295395E-3,1.767687250E-2
1.884667208E0,1.296005212E-2,3.295645351E-3,-1.148959249E-2,1.763051232E-2
1.894646208E0,8.631563745E-3,4.956824705E-5,-1.311178319E-2,1.569793643E-2
1.904625208E0,8.492014371E-3,2.927149180E-4,-1.285771746E-2,1.541171270E-2
1.914604208E0,5.321223289E-3,2.022296656E-3,-8.016223088E-3,9.831832670E-3
1.924583208E0,5.949196406E-3,5.357200280E-4,-6.329908967E-3,8.703314389E-3
1.934562208E0,8.449924178E-3,2.346541500E-3,-2.477779752E-3,9.113005439E-3
1.944541208E0,1.213547308E-2,6.236621179E-3,2.868782496E-3,1.394256302E-2
1.954520208E0,1.504659932E-2,4.954315722E-3,5.828618072E-3,1.687951966E-2
1.964499208E0,1.833853312E-2,9.686220437E-3,5.473085679E-3,2.144945990E-2
1.974478208E0,2.051695064E-2,8.941787295E-3,4.825473297E-3,2.289510900E-2
1.984456208E0,1.750171930E-2,-2.543893643E-3,2.831831109E-3,1.791091401E-2
1.994435208E0,1.301374100E-2,-1.113272458E-2,5.257037468E-3,1.791455985E-2
2.004414208E0,6.887138821E-3,-1.755467243E-2,9.438998997E-3,2.108776677E-2
2.014393208E0,7.491211873E-4,-1.616762206E-2,1.476046257E-2,2.190489536E-2
2.024372208E0,5.566515028E-6,-1.363815181E-2,1.397749316E-2,1.952868482E-2
2.034351208E0,3.915103152E-3,-7.605089340E-3,7.854951546E-3,1.161316840E-2
2.044330208E0,5.845095962E-3,-4.152567592E-3,-3.158926265E-4,7.176959841E-3
2.054309208E0,7.567089051E-3,-1.659451053E-3,-7.181921043E-3,1.056383474E-2
2.064288208E0,5.839763209E-3,-2.662930172E-3,-9.288215078E-3,1.129003856E-2
2.074267208E0,-7.536753546E-4,-9.830357507E-3,-7.495309692E-3,1.238481419E-2
2.084246208E0,-9.459282272E-3,-1.080108061E-2,-3.278726479E-3,1.472723365E-2
2.094225208E0,-1.079302840E-2,-1.106161345E-2,4.319236614E-4,1.546076687E-2
2.104204208E0,-8.373280056E-3,-9.275430813E-3,-4.135397263E-3,1.316233058E-2
2.114182208E0,-4.602748901E-3,9.997840971E-4,-1.255598105E-2,1.341035145E-2
2.124161208E0,-1.027720980E-3,8.052101359E-3,-1.734673977E-2,1.915207371E-2
2.134140208E0,-1.021630596E-3,5.280739628E-3,-1.768249832E-2,1.848244267E-2
2.144119208E0,2.064174041E-3,5.930018611E-3,-2.133582346E-2,2.224057773E-2
2.154098208E0,6.406852044E-4,9.921890683E-3,-2.009752207E-2,2.242241703E-2
2.164077208E0,5.424143746E-4,5.940198898E-3,-1.853504591E-2,1.947121216E-2
2.174056208E0,-3.588658059E-3,5.519224331E-3,-1.635451429E-2,1.762981683E-2
2.184035208E0,-8.546665311E-3,8.780531585E-3,-1.301091537E-2,1.787252477E-2
2.194014208E0,-1.783654653E-2,2.113113645E-3,-7.775207050E-3,1.957195662E-2
2.203993208E0,-2.498713508E-2,-2.607872244E-3,8.893881459E-4,2.513859440E-2
2.213972208E0,-3.117074072E-2,-1.719977241E-3,7.056470029E-3,3.200573649E-2
2.223951208E0,-2.668757550E-2,-6.267324556E-3,6.924643647E-3,2.827466592E-2
2.233930208E0,-1.511183940E-2,-9.952129796E-3,5.961976014E-3,1.905144970E-2
2.243908208E0,-9.882969316E-4,-1.449015643E-2,2.064972417E-3,1.466988328E-2
2.253887208E0,4.970033187E-3,-1.822981983E-2,-8.779891767E-3,2.083540402E-2
2.263866208E0,7.969550788E-3,-1.220042445E-2,-1.546389237E-2,2.124843674E-2
2.273845208E0,1.798101468E-3,-6.356280297E-3,-1.987980679E-2,2.094856048E-2
2.283824208E0,-7.177283987E-3,-5.018840544E-3,-2.198743261E-2,2.366747470E-2
2.293803208E0,-1.056556869E-2,-6.638627965E-3,-2.166299336E-2,2.499975808E-2
2.303782208E0,-1.043134555E-2,-9.695405141E-3,-2.480525710E-2,2.860270320E-2
2.313761208E0,-1.055009197E-2,-1.147851534E-2,-2.497849800E-2,2.944462799E-2
2.323740208E0,-1.523805410E-2,-6.420906167E-3,-2.290709130E-2,2.825174615E-2
2.333719208E0,-2.035743557E-2,1.097033918E-2,-1.908013038E-2,2.998040860E-2
2.343698208E0,-2.747100592E-2,2.305230126E-2,-8.184873499E-3,3.678392194E-2
2.353677208E0,-3.017096594E-2,2.416329272E-2,5.413831677E-3,3.903154461E-2
2.363656208E0,-2.967321873E-2,1.739673316E-2,1.762202755E-2,3.864818352E-2
2.373634208E0,-3.229674697E-2,4.589778371E-3,2.812214009E-2,4.306971899E-2
2.383613208E0,-3.776901215E-2,-7.487657014E-3,3.786345199E-2,5.400189148E-2
2.393592208E0,-4.468596727E-2,-6.099863444E-3,4.018199444E-2,6.040394591E-2
2.403571208E0,-4.916620255E-2,-3.149347380E-3,3.869355470E-2,6.264523156E-2
2.413550208E0,-4.472275823E-2,-5.762053654E-3,3.084189445E-2,5.463102433E-2
2.423529208E0,-3.478996456E-2,-7.410816848E-3,1.754499786E-2,3.966218337E-2
2.433508208E0,-2.720111050E-2,-5.216524005E-3,8.771603927E-3,2.905260006E-2
2.443487208E0,-2.351422980E-2,-3.163074143E-4,1.651109895E-3,2.357424903E-2
2.453466208E0,-2.168135718E-2,2.421307378E-3,-2.634040546E-3,2.197457959E-2
2.463445208E0,-2.289842069E-2,3.031703876E-3,-5.384020973E-3,2.371743199E-2
2.473424208E0,-1.887752675E-2,4.308093339E-4,-7.084919140E-3,2.016786285E-2
2.483403208E0,-1.752197742E-2,-9.537679143E-4,-7.487589028E-3,1.907860990E-2
2.493381208E0,-1.295946632E-2,7.103154901E-3,-7.753437385E-3,1.668886959E-2
2.503360208E0,-4.617912695E-3,9.084813297E-3,-2.767467406E-3,1.056020010E-2
2.513339208E0,8.393473923E-3,8.029529825E-3,3.368058009E-3,1.209411297E-2
2.523318208E0,2.460946143E-2,1.315132156E-2,-4.863349604E-4,2.790733545E-2
2.533297208E0,4.103293270E-2,2.213982865E-2,-6.920866668E-3,4.713567623E-2
2.543276208E0,5.058728904E-2,2.355183661E-2,-7.421541028E-3,5.629246922E-2
2.553255208E0,5.278887600E-2,2.856009826E-2,-3.079720540E-3,6.009849682E-2
2.563234208E0,5.094943196E-2,3.463263810E-2,6.039209664E-3,6.190102012E-2
2.573213208E0,4.549877718E-2,3.310479224E-2,1.704312116E-2,5.879229518E-2
2.583192208E0,3.975646943E-2,3.238813579E-2,2.151190676E-2,5.560872534E-2
2.593171208E0,3.828586265E-2,2.650214918E-2,2.026248537E-2,5.078129088E-2
2.603150208E0,3.727519512E-2,1.414321736E-2,1.279924251E-2,4.187232233E-2
2.613129208E0,3.862831742E-2,5.654782522E-3,2.161380369E-3,3.909980865E-2
2.623107208E0,3.384660929E-2,-1.731228549E-3,-5.820645951E-3,3.438706199E-2
2.633086208E0,3.050648421E-2,-7.895312272E-3,-9.690818377E-3,3.296806782E-2
2.643065208E0,2.448827215E-2,-1.183892135E-2,-8.939807303E-3,2.863137590E-2
2.653044208E0,1.632302999E-2,-2.173675597E-2,-4.500650335E-3,2.755328876E-2
2.663023208E0,6.840046030E-3,-2.862422541E-2,-2.510203980E-3,2.953698756E-2
2.673002208E0,-4.186467268E-4,-3.658267483E-2,-5.402797367E-3,3.698185477E-2
2.682981167E0,-5.035236478E-3,-4.233111069E-2,-1.019808557E-2,4.383237944E-2
2.692960167E0,-1.096745580E-2,-4.610608146E-2,-1.265438367E-2,4.905292305E-2
2.702939167E0,-1.541626640E-2,-3.462626040E-2,-1.022158656E-2,3.925710141E-2
2.712918167E0,-1.659123413E-2,-2.654449269E-2,-5.232820287E-3,3.173738412E-2
2.722897167E0,-1.968342997E-2,-2.094865777E-2,6.029643118E-4,2.875147376E-2
2.732876167E0,-2.265025303E-2,-2.076551504E-2,6.697141565E-3,3.144983756E-2
2.742855167E0,-2.349394374E-2,-2.950388007E-2,7.065989077E-3,3.837150679E-2
2.752833167E0,-2.416827716E-2,-3.541456908E-2,5.324079189E-3,4.320466576E-2
2.762812167E0,-2.278849483E-2,-3.564733267E-2,4.519538488E-3,4.254966570E-2
2.772791167E0,-1.944373176E-2,-2.981251851E-2,2.968981862E-3,3.571638024E-2
2.782770167E0,-1.170059014E-2,-2.146537229E-2,-3.797844518E-3,2.474044544E-2
2.792749167E0,-1.787805930E-3,-1.402297989E-2,-6.675054785E-3,1.563318814E-2
2.802728167E0,6.911942270E-3,-1.602967083E-2,-9.068704210E-3,1.967146891E-2
2.812707167E0,1.002331916E-2,-1.156634465E-2,-1.154317986E-2,1.917008756E-2
2.822686167E0,1.240285393E-2,-1.252082177E-2,-6.767599378E-3,1.887861660E-2
2.832665167E0,8.919714950E-3,-1.237347908E-2,-3.109548474E-3,1.556706752E-2
2.842644167E0,8.199863136E-3,-1.036998257E-2,1.511568436E-3,1.330635687E-2
2.852623167E0,6.329759024E-3,-1.675425470E-2,6.975709461E-3,1.922059891E-2
2.862602167E0,1.437684987E-4,-2.564761415E-2,7.390363608E-3,2.669153902E-2
2.872581167E0,-2.704222454E-3,-3.147820756E-2,6.165176630E-3,3.219005705E-2
2.882559167E0,-1.438111812E-2,-3.256211430E-2,5.991005804E-3,3.609709125E-2
2.892538167E0,-2.619968541E-2,-2.507723123E-2,1.156360377E-2,3.806583736E-2
2.902517167E0,-3.086581081E-2,-1.707230322E-2,1.124349143E-2,3.702131702E-2
2.912496167E0,-2.981653623E-2,-7.755768485E-3,1.244670805E-2,3.322797494E-2
2.922475167E0,-2.225688845E-2,-3.821214661E-3,1.152046025E-2,2.535136622E-2
2.932454167E0,-1.568760164E-2,3.892583307E-3,1.032742765E-2,1.918094919E-2
2.942433167E0,-1.177355368E-2,1.205623709E-2,1.405079383E-2,2.194069794E-2
2.952412167E0,-8.096334524E-3,1.254590601E-2,2.332612127E-2,2.769581780E-2
2.962391167E0,-6.251030602E-3,1.088462584E-2,3.049827926E-2,3.298022894E-2
2.972370167E0,-5.386480130E-3,1.370600332E-2,3.712794557E-2,3.994187073E-2
2.982349167E0,2.399537945E-3,1.222182345E-2,3.229084611E-2,3.460967340E-2
2.992328167E0,7.788397837E-3,5.556650460E-3,2.139992267E-2,2.344124987E-2
3.002307167E0,1.171442959E-2,3.584260121E-4,1.277048141E-2,1.733324913E-2
3.012285167E0,1.257675886E-2,-9.043798782E-3,1.215868723E-2,1.969260864E-2
3.022264167E0,9.240616113E-3,-1.607348025E-2,1.121805888E-2,2.167003919E-2
3.032243167E0,6.251240149E-3,-1.427497249E-2,1.619170979E-2,2.247274591E-2
3.042222167E0,3.842411097E-3,-1.508137863E-2,2.626884542E-2,3.053300418E-2
3.052201167E0,2.000008011E-3,-1.628160663E-2,3.363561630E-2,3.742252571E-2
3.062180167E0,4.915636964E-3,-1.432338357E-2,3.574484214E-2,3.882031096E-2
3.072159167E0,8.158288896E-3,-1.449862309E-2,3.511366993E-2,3.885534153E-2
3.082138167E0,1.174689829E-2,-1.179444976E-2,3.164676949E-2,3.575774999E-2
3.092117167E0,1.619814336E-2,-9.607184678E-3,1.978877559E-2,2.731800661E-2
3.102096167E0,2.006158978E-2,-1.638740767E-3,5.324348807E-3,2.082069994E-2
3.112075167E0,1.979547180E-2,6.184410304E-3,-1.066572499E-3,2.076644437E-2
3.122054167E0,1.151810028E-2,6.513576955E-3,-3.934797365E-3,1.380492481E-2
3.132033167E0,7.680454291E-4,4.240118433E-3,-2.801154507E-3,5.139549074E-3
3.142011167E0,-1.629802212E-2,-3.523529042E-3,2.011177596E-3,1.679540465E-2
3.151990167E0,-2.976779826E-2,-9.429099038E-3,1.204170752E-2,3.346688575E-2
3.161969167E0,-3.946223855E-2,-1.704201102E-2,2.151483670E-2,4.806856155E-2
3.171948167E0,-4.268225655E-2,-1.865022629E-2,2.621019073E-2,5.344698367E-2
3.181927167E0,-4.388067871E-2,-2.187611163E-2,2.797613293E-2,5.645123770E-2
3.191906167E0,-4.031925276E-2,-1.850255765E-2,3.059708327E-2,5.389033575E-2
3.201885167E0,-3.780043498E-2,-1.322949864E-2,3.008309193E-2,5.008877059E-2
3.211864167E0,-2.857970260E-2,-9.325418621E-3,2.943074889E-2,4.207055756E-2
3.221843167E0,-1.710866764E-2,-6.069704425E-3,2.754949220E-2,3.299276194E-2
3.231822167E0,-6.465323269E-3,-4.695360549E-4,2.574033849E-2,2.654403689E-2
3.241801167E0,2.643752843E-3,9.613191709E-3,2.128540166E-2,2.350470607E-2
3.251780167E0,7.624854334E-3,1.854674518E-2,1.741476916E-2,2.655926101E-2
3.261758167E0,9.833946824E-3,1.893822849E-2,1.488423347E-2,2.601736756E-2
3.271737167E0,1.067845710E-2,1.229025237E-2,1.407642942E-2,2.152267675E-2
3.281716167E0,3.936132416E-3,1.819501864E-3,1.489215530E-2,1.551064199E-2
3.291695167E0,-1.906069694E-3,-2.512402367E-3,1.444474421E-2,1.478498910E-2
3.301674167E0,-6.516002119E-3,-4.544394091E-3,1.329452544E-2,1.548722726E-2
3.311653167E0,-8.101333864E-3,-7.009070367E-3,1.367236022E-2,1.736928645E-2
3.321632167E0,-2.876211656E-3,-4.782934673E-3,1.572299376E-2,1.668417185E-2
3.331611167E0,2.676745411E-3,1.943677664E-3,1.759972237E-2,1.790790542E-2
3.341590167E0,9.497633204E-3,3.942380194E-3,1.994357072E-2,2.243865885E-2
3.351569167E0,1.429770887E-2,-1.479417551E-3,2.515391260E-2,2.897123529E-2
3.361548167E0,1.598748378E-2,-1.513477601E-2,3.098543733E-2,3.800997776E-2
3.371527167E0,1.093710214E-2,-2.173620835E-2,3.260090575E-2,4.068048687E-2
3.381506167E0,7.202285342E-3,-2.222889476E-2,3.369573131E-2,4.100486538E-2
3.391485167E0,4.946217872E-3,-1.983919926E-2,3.090387769E-2,3.705547942E-2
3.401463167E0,1.449220814E-3,-1.322151162E-2,2.822633460E-2,3.120311804E-2
3.411442167E0,2.779229544E-3,-1.080362126E-2,2.576664090E-2,2.807778717E-2
3.421421167E0,6.001121830E-3,-1.196795609E-2,2.514585853E-2,2.848788580E-2
3.431400167E0,4.981704988E-3,-9.456651285E-3,2.466602251E-2,2.688230467E-2
3.441379167E0,-5.518109538E-4,-5.207044538E-3,2.753957361E-2,2.803294353E-2
3.451358167E0,-5.528459325E-3,-7.567137945E-3,3.299878910E-2,3.430372460E-2
3.461337167E0,-6.018747576E-3,-1.259758323E-2,2.866688929E-2,3.188596819E-2
3.471316167E0,-7.571113762E-3,-1.146367751E-2,1.948171295E-2,2.383851516E-2
3.481295167E0,-1.018900052E-2,-8.643390611E-3,9.051710367E-3,1.613869243E-2
3.491274167E0,-9.581509978E-3,-4.064077977E-3,-3.406825708E-3,1.095118828E-2
3.501253167E0,-8.161512204E-3,7.231719792E-3,-1.675219275E-2,1.998859711E-2
3.511232167E0,-3.547337605E-3,6.408930756E-3,-2.721321955E-2,2.818186147E-2
3.521210167E0,9.358276147E-4,4.833937157E-3,-3.609832376E-2,3.643256373E-2
3.531189167E0,7.400027476E-3,6.423024461E-3,-4.372083023E-2,4.480543099E-2
3.541168167E0,9.468504228E-3,2.556757536E-4,-4.341509938E-2,4.443634545E-2
3.551147167E0,6.862404291E-3,2.100130077E-3,-4.268318787E-2,4.328230199E-2
3.561126167E0,9.904033504E-5,4.503899254E-3,-4.227093235E-2,4.251031215E-2
3.571105167E0,-6.130080670E-3,1.347396150E-2,-3.774196282E-2,4.054110612E-2
3.581084167E0,-6.297061220E-3,4.170560092E-2,-4.086105525E-2,5.872508803E-2
3.591063167E0,-1.095041446E-2,7.168346643E-2,-4.592425749E-2,8.583395810E-2
3.601042167E0,-1.279838197E-2,6.803440303E-2,-4.092789814E-2,8.042121251E-2
3.611021167E0,-1.410488132E-2,5.117720738E-2,-2.683984861E-2,5.948471825E-2
3.621000167E0,-2.637220174E-2,1.942593604E-2,-7.751640398E-3,3.365929210E-2
3.630979167E0,-4.081885144E-2,-1.700146496E-2,1.369999163E-2,4.629166463E-2
3.640958167E0,-5.672884360E-2,-3.985538334E-2,2.827866748E-2,7.487520492E-2
3.650937167E0,-7.029337436E-2,-4.598111659E-2,3.455487266E-2,9.082654230E-2
3.660915167E0,-7.462047786E-2,-4.130993411E-2,3.165362403E-2,9.097625122E-2
3.670894167E0,-7.047500461E-2,-3.527574241E-2,2.806208655E-2,8.365754586E-2
3.680873917E0,-5.604200810E-2,-2.634616196E-2,2.422820032E-2,6.649686168E-2
3.690852917E0,-3.823978826E-2,-2.135804854E-2,1.830372959E-2,4.747077165E-2
3.700831917E0,-2.021418139E-2,-1.768794470E-2,1.465466619E-2,3.059796983E-2
3.710810917E0,-5.908537656E-3,-5.877241027E-3,1.362682041E-2,1.597319673E-2
3.720789917E0,4.814946558E-3,6.575168110E-3,1.473735925E-2,1.684061471E-2
3.730768917E0,1.149335597E-2,1.493483037E-2,2.746939845E-2,3.331237369E-2
3.740747917E0,1.242626086E-2,1.531353220E-2,4.330296069E-2,4.758216717E-2
3.750726917E0,7.633968256E-3,1.654120162E-2,5.909077078E-2,6.183532982E-2
3.760705917E0,6.391603965E-3,1.087372750E-2,7.298581302E-2,7.406766807E-2
3.770684917E0,5.663749762E-3,-2.708131447E-3,7.558719814E-2,7.584745586E-2
3.780662917E0,1.157942973E-2,-1.087285019E-2,6.848001480E-2,7.029804045E-2
3.790641917E0,1.825115271E-2,-2.068787068E-2,5.851413682E-2,6.469155104E-2
3.800620917E0,1.954518259E-2,-2.662565559E-2,4.210187495E-2,5.351175172E-2
3.810599917E0,1.603938453E-2,-2.807521820E-2,3.303940222E-2,4.622858241E-2
3.820578917E0,7.984121330E-3,-2.938442677E-2,3.053443134E-2,4.312240980E-2
3.830557917E0,-7.153449114E-4,-2.946065739E-2,2.775708772E-2,4.048330484E-2
3.840536917E0,-3.981179558E-3,-2.475485206E-2,3.024048544E-2,3.928281368E-2
3.850515917E0,-6.694670767E-3,-2.009305358E-2,3.511812910E-2,4.101015009E-2
3.860494917E0,-1.187851373E-2,-1.824854873E-2,3.691256791E-2,4.285611146E-2
3.870473917E0,-1.492274553E-2,-9.694799781E-3,3.898563981E-2,4.285507658E-2
3.880452917E0,-2.124029584E-2,-2.964458894E-3,3.344094008E-2,3.972700162E-2
3.890431917E0,-2.574210428E-2,5.991219543E-3,2.369589731E-2,3.549712937E-2
3.900410917E0,-2.723294124E-2,1.004241966E-2,7.463132031E-3,2.996967836E-2
3.910388917E0,-2.491362579E-2,9.493133985E-3,-1.581915095E-2,3.100086902E-2
3.920367917E0,-2.533653565E-2,8.849980310E-3,-3.363090754E-2,4.302673741E-2
3.930346917E0,-2.430111170E-2,3.053074935E-3,-4.077536613E-2,4.756569961E-2
3.940325917E0,-2.515172586E-2,3.815005301E-3,-4.446997121E-2,5.123223515E-2
3.950304917E0,-2.510029636E-2,4.649315029E-3,-4.172604904E-2,4.891527549E-2
3.960283917E0,-2.558046393E-2,4.673017189E-3,-4.029060528E-2,4.795341592E-2
3.970262917E0,-2.574051544E-2,-3.424722236E-3,-3.128898889E-2,4.066083722E-2
3.980241917E0,-2.726996876E-2,-1.061632205E-2,-2.725030668E-2,3.998670660E-2
3.990220917E0,-3.101119399E-2,-1.334966347E-2,-2.095259354E-2,3.973561178E-2
4.000199917E0,-3.640223294E-2,-2.031356283E-2,-1.331384946E-2,4.376096417E-2
4.010178917E0,-3.793087602E-2,-2.124986239E-2,-9.287749417E-3,4.445863579E-2
4.020157917E0,-3.569168970E-2,-2.684223466E-2,-8.609442972E-3,4.548103762E-2
4.030136917E0,-2.794619836E-2,-3.267337009E-2,-1.100162603E-2,4.437989287E-2
4.040114917E0,-1.565677673E-2,-3.368031234E-2,-1.811732724E-2,4.132475823E-2
4.050093917E0,-8.674699813E-3,-2.789144404E-2,-2.262279764E-2,3.694555509E-2
4.060072917E0,-1.792292809E-3,-1.968651265E-2,-2.151838504E-2,2.922006140E-2
4.070051917E0,-9.172412101E-4,-5.712391343E-3,-1.622268744E-2,1.722348205E-2
4.080030917E0,-5.060492549E-4,5.128805060E-3,-1.260345150E-2,1.361645023E-2
4.090009917E0,1.988524105E-3,1.088142954E-2,-1.094183885E-2,1.555903513E-2
4.099988917E0,2.826088108E-3,1.649137959E-2,-1.703222096E-2,2.387569738E-2
4.109967917E0,1.634300454E-3,1.788600534E-2,-2.091797628E-2,2.757067022E-2
4.119946917E0,-9.790593758E-4,1.733499765E-2,-2.729225159E-2,3.234698900E-2
4.129925917E0,-5.903461948E-3,1.584370434E-2,-3.145457059E-2,3.571083647E-2
4.139904917E0,-1.129556354E-2,8.834531531E-3,-3.391586244E-2,3.682287914E-2
4.149883917E0,-1.734969020E-2,1.185143832E-3,-3.633614630E-2,4.028314590E-2
4.159862917E0,-2.602227405E-2,1.545735868E-3,-3.688821942E-2,4.516955587E-2
4.169840917E0,-3.021653555E-2,-1.701521687E-4,-3.801766783E-2,4.856347434E-2
4.179819917E0,-3.281125799E-2,-3.398702480E-3,-3.459976614E-2,4.780453583E-2
4.189798917E0,-2.753815055E-2,-1.607581973E-3,-3.525024280E-2,4.476062637E-2
4.199777917E0,-2.223553136E-2,1.479554456E-3,-3.331625462E-2,4.008217506E-2
4.209756917E0,-1.420287136E-2,2.997367177E-3,-3.287477046E-2,3.593683762E-2
4.219735917E0,-5.424293689E-3,3.183255671E-3,-3.556802869E-2,3.611981096E-2
4.229714917E0,-9.507569484E-5,4.263356794E-3,-3.230825067E-2,3.258846900E-2
4.239693917E0,4.636562429E-3,4.334647674E-4,-3.220997751E-2,3.254486525E-2
4.249672917E0,9.764524177E-3,-4.157477058E-3,-2.926645987E-2,3.113127400E-2
4.259651917E0,9.970653802E-3,-4.773732740E-3,-2.474467829E-2,2.710168934E-2
4.269630917E0,8.818740025E-3,-3.885130398E-3,-1.689653471E-2,1.945140867E-2
4.279609917E0,4.110537469E-3,-2.534641419E-3,-8.917436004E-3,1.014108428E-2
4.289588917E0,4.980107304E-3,8.572195657E-5,-3.654564731E-3,6.177755287E-3
4.299567917E0,4.897282925E-3,3.498296719E-3,-1.337348484E-3,6.165221889E-3
4.309545917E0,9.549533948E-3,8.803306147E-3,-1.778899459E-3,1.310939667E-2
4.319524917E0,1.287209429E-2,1.000252739E-2,-4.294787999E-3,1.685783407E-2
4.329503917E0,1.361195464E-2,7.796441205E-3,-6.800624542E-3,1.709731846E-2
4.339482917E0,9.986859746E-3,1.143911295E-2,-2.759277588E-3,1.543386813E-2
4.349461917E0,4.737984389E-3,1.455153618E-2,6.253353786E-4,1.531622491E-2
4.359440917E0,-2.081838204E-3,1.766690239E-2,7.909080945E-3,1.946810345E-2
4.369419917E0,-6.057363935E-3,1.222520880E-2,1.439687423E-2,1.983475172E-2
4.379398917E0,-7.228622213E-3,3.303619567E-3,1.400219277E-2,1.610056780E-2
4.389377917E0,-5.857367069E-3,-4.151768517E-3,7.871729322E-3,1.065410969E-2
4.399356917E0,-4.657879006E-3,-9.610183537E-3,-5.680031609E-3,1.209604165E-2
4.409335917E0,-9.336003102E-3,-4.366090987E-3,-1.524670515E-2,1.840341605E-2
4.419314917E0,-1.544636115E-2,1.309105195E-3,-1.905369200E-2,2.456312293E-2
4.429292917E0,-1.862403564E-2,8.184391074E-3,-1.688967459E-2,2.644050054E-2
4.439271917E0,-1.485965587E-2,3.084437689E-3,-1.084216963E-2,1.865142812E-2
4.449250917E0,-3.529164242E-3,-1.650905702E-3,-1.170930639E-2,1.234051644E-2
4.459229917E0,8.264111355E-3,-1.546509564E-3,-1.288402639E-2,1.538458204E-2
4.469208917E0,1.521943882E-2,5.782558583E-3,-1.589585282E-2,2.275406422E-2
4.479187917E0,1.702346280E-2,7.872074842E-3,-1.464949269E-2,2.379864459E-2
4.489166917E0,1.628654078E-2,4.934068769E-3,-1.108831167E-2,2.031125552E-2
4.499145917E0,1.459756494E-2,4.617951810E-3,-2.132367808E-3,1.545837551E-2
4.509124917E0,1.209952962E-2,-6.846887525E-3,8.420873433E-3,1.625391015E-2
4.519103917E0,1.316639222E-2,-1.379267685E-2,1.652034558E-2,2.522922189E-2
4.529082917E0,1.971858926E-2,-1.947046444E-2,1.643106155E-2,3.221647919E-2
4.539061917E0,2.661963739E-2,-2.371287905E-2,1.189037133E-2,3.758040257E-2
4.549040917E0,3.170494363E-2,-1.664911211E-2,-9.519240120E-4,3.582321236E-2
4.559018917E0,3.204050288E-2,-7.378914859E-3,-1.067139674E-2,3.456762817E-2
4.568997917E0,3.027747013E-2,-4.944391083E-3,-2.097716182E-2,3.716468107E-2
4.578976917E0,2.363634668E-2,-6.820854265E-3,-2.237771824E-2,3.325602518E-2
4.588955917E0,1.519248635E-2,-5.270040128E-3,-1.942993142E-2,2.522116570E-2
4.598934917E0,1.009306591E-2,-6.022915710E-3,-1.395713631E-2,1.824683937E-2
4.608913917E0,8.499192074E-3,-5.900203250E-3,-1.013117190E-2,1.448065290E-2
4.618892917E0,8.267231286E-3,-9.531956166E-3,-9.509590454E-3,1.579992443E-2
4.628871917E0,1.055888087E-2,-2.013399825E-2,-1.066620089E-2,2.511246089E-2
4.638850917E0,9.287222289E-3,-1.804981008E-2,-1.094636600E-2,2.306233012E-2
4.648829917E0,6.090051495E-3,-2.053841203E-2,-1.115342788E-2,2.415189536E-2
4.658808917E0,5.471932236E-3,-2.361835726E-2,-4.026808310E-3,2.457608649E-2
4.668787917E0,7.826490328E-3,-2.186398767E-2,2.067702822E-3,2.331444408E-2
4.678766917E0,1.198315248E-2,-1.813369617E-2,3.890636610E-3,2.208084992E-2
4.688744708E0,1.801680960E-2,-1.584923826E-2,3.976657055E-3,2.432319023E-2
4.698723708E0,2.014041506E-2,-1.630064286E-2,6.961749750E-4,2.591972099E-2
4.708702708E0,1.971133798E-2,-1.305046491E-2,-1.221100800E-3,2.367155607E-2
4.718681708E0,1.603803970E-2,-1.350426860E-2,-5.039114621E-4,2.097231305E-2
4.728660708E0,1.151524391E-2,-1.967959106E-2,2.211712534E-3,2.290805140E-2
4.738639708E0,3.331882879E-3,-2.022474259E-2,5.061827600E-3,2.111311808E-2
4.748618708E0,-4.351092502E-3,-1.746631041E-2,6.688820664E-3,1.920271666E-2
4.758597708E0,-1.079407800E-2,-1.212028228E-2,6.088011432E-3,1.733427949E-2
4.768576708E0,-9.982318617E-3,-4.328464158E-3,7.313929033E-3,1.311014282E-2
4.778555708E0,-9.791902266E-3,-6.296007894E-3,8.146965876E-3,1.420894501E-2
4.788534708E0,-3.610733664E-3,-1.055860426E-2,1.085933112E-2,1.557069664E-2
4.798513708E0,2.033037366E-3,-1.184091624E-2,1.078582741E-2,1.614542075E-2
4.808492708E0,5.060271360E-3,-1.489755325E-2,7.587236818E-3,1.746738680E-2
4.818471708E0,4.566787742E-3,-1.166367717E-2,1.043282449E-2,1.630155644E-2
4.828449708E0,1.141696237E-3,-8.879875764E-3,1.055692788E-2,1.384212376E-2
4.838428708E0,-3.228018526E-3,-5.885417107E-3,1.258465927E-2,1.426295506E-2
4.848407708E0,-3.576629097E-3,-9.215367958E-3,1.312787645E-2,1.643339351E-2
4.858386708E0,-4.234164022E-3,-1.329799369E-2,1.148683764E-2,1.807518244E-2
4.868365708E0,-5.775325000E-3,-1.760532148E-2,1.438056026E-2,2.345425839E-2
4.878344708E0,-1.090004668E-2,-2.324456535E-2,1.726875827E-2,3.094076353E-2
4.888323708E0,-1.986031421E-2,-2.364405617E-2,2.100517601E-2,3.734556054E-2
4.898302708E0,-3.236864880E-2,-1.705459692E-2,2.698104270E-2,4.545949148E-2
4.908281708E0,-3.976497799E-2,-1.474182121E-2,3.111260198E-2,5.259818219E-2
4.918260708E0,-4.352429509E-2,-8.316412568E-3,3.237360716E-2,5.487784090E-2
4.928239708E0,-5.165250227E-2,-6.353154313E-4,3.063162975E-2,6.005565217E-2
4.938218708E0,-5.670798197E-2,3.857703414E-3,2.843745053E-2,6.355600434E-2
4.948196708E0,-6.347807497E-2,9.622028098E-3,2.971477807E-2,7.074614804E-2
4.958175708E0,-7.042998821E-2,1.606128551E-2,3.214677796E-2,7.906809384E-2
4.968154708E0,-7.314771414E-2,2.360809222E-2,3.472451866E-2,8.434288528E-2
4.978133708E0,-6.862433255E-2,2.564700693E-2,2.885570750E-2,7.873829968E-2
4.988112708E0,-6.367297471E-2,3.583480418E-2,2.846755087E-2,7.841417188E-2
4.998091708E0,-5.917462707E-2,4.286528379E-2,2.532954700E-2,7.733469463E-2
5.008070708E0,-5.495064333E-2,4.082062468E-2,2.150245570E-2,7.175132196E-2
5.018049708E0,-4.951779544E-2,4.185286537E-2,2.180578932E-2,6.840443592E-2
5.028028708E0,-4.568382353E-2,3.949579224E-2,1.389719173E-2,6.196822795E-2
5.038007708E0,-4.101290554E-2,3.514977917E-2,6.798535120E-3,5.444066014E-2
5.047986708E0,-3.549809754E-2,3.131067753E-2,8.378189523E-5,4.733371394E-2
5.057965708E0,-3.227700293E-2,1.970835216E-2,-2.846494084E-3,3.792527642E-2
5.067944708E0,-2.807960100E-2,1.027097460E-2,-4.471888300E-3,3.023168366E-2
5.077923708E0,-2.295567840E-2,-9.188291151E-4,-6.175246090E-3,2.378951622E-2
5.087901708E0,-1.995424554E-2,-5.751386750E-3,-3.738723928E-3,2.110043652E-2
5.097880708E0,-1.864370517E-2,-6.699205842E-3,-4.663905594E-3,2.035237374E-2
5.107859708E0,-1.251256652E-2,-2.461248543E-3,-1.166976988E-3,1.280561989E-2
5.117838708E0,-6.062656641E-3,5.121303722E-3,3.846690059E-3,8.819330007E-3
5.127817708E0,5.937819835E-3,1.064084005E-2,7.817595266E-3,1.447756806E-2
5.137796708E0,2.036762424E-2,1.390507631E-2,5.541923922E-3,2.527655406E-2
5.147775708E0,2.889366075E-2,1.213804819E-2,5.497721955E-3,3.181824622E-2
5.157754708E0,3.341704234E-2,1.255137101E-2,3.250280395E-3,3.584410629E-2
5.167733708E0,2.635279298E-2,5.809792783E-3,3.526513698E-3,2.721506364E-2
5.177712708E0,1.052722428E-2,1.790017472E-3,5.675418768E-3,1.209284879E-2
5.187691708E0,-1.211843733E-2,-3.477383405E-3,8.902303874E-3,1.543372064E-2
5.197670708E0,-3.435609490E-2,-1.126419939E-2,1.469627768E-2,3.902824646E-2
5.207649708E0,-4.911612719E-2,-1.784773171E-2,1.841931045E-2,5.540944392E-2
5.217627708E0,-5.257104710E-2,-2.256791852E-2,9.659373201E-3,5.802007782E-2
5.227606708E0,-4.593525454E-2,-2.081589401E-2,3.516061231E-3,5.055404771E-2
5.237585708E0,-3.785975277E-2,-1.366557181E-2,-3.613220761E-3,4.041242504E-2
5.247564708E0,-3.337953985E-2,-1.153516117E-3,-5.654798355E-3,3.387478449E-2
5.257543708E0,-2.743376791E-2,1.195056830E-2,1.922161551E-3,2.998536993E-2
5.267522708E0,-2.862317860E-2,1.558137685E-2,1.552119292E-2,3.609671852E-2
5.277501708E0,-2.896672860E-2,1.779126748E-2,3.032011352E-2,4.555117834E-2
5.287480708E0,-2.446162701E-2,1.144531555E-2,4.128800333E-2,4.933625100E-2
5.297459708E0,-2.382619679E-2,2.582315821E-3,4.290134460E-2,4.914144256E-2
5.307438708E0,-1.349525154E-2,3.364223521E-3,3.607166559E-2,3.866011992E-2
5.317417708E0,-5.929210689E-3,7.147510070E-3,2.039656788E-2,2.241121195E-2
5.327396708E0,4.352687858E-3,5.722375587E-3,4.425130319E-3,8.442348742E-3
5.337375708E0,1.262553129E-2,5.341011100E-3,-1.164411753E-2,1.798654812E-2
5.347353708E0,1.238953229E-2,-1.559385564E-3,-1.582860388E-2,2.016127214E-2
5.357332708E0,6.756413728E-3,-8.056432940E-3,-1.295665279E-2,1.668622455E-2
5.367311708E0,-3.374994267E-3,-1.257407013E-2,-3.546777880E-3,1.349360809E-2
5.377290708E0,-1.220949832E-2,-8.402494714E-3,2.493537962E-3,1.502968723E-2
5.387269708E0,-1.888447627E-2,-1.350259036E-2,7.811208721E-3,2.449404769E-2
5.397248708E0,-1.865704358E-2,-1.309139840E-2,9.616299532E-3,2.473748580E-2
5.407227708E0,-1.383167971E-2,-1.450780686E-2,6.980969571E-3,2.122559209E-2
5.417206708E0,-7.581773214E-3,-1.601196080E-2,7.472589146E-3,1.922773420E-2
5.427185708E0,-2.764631296E-3,-1.004574075E-2,8.397569880E-3,1.338205042E-2
5.437164708E0,4.868520889E-3,-4.166280851E-3,8.785592392E-3,1.087414482E-2
5.447143708E0,1.942397095E-2,-1.028425992E-3,5.726819392E-3,2.027670506E-2
5.457122708E0,3.172750771E-2,-2.595430240E-3,3.405874362E-3,3.201516803E-2
5.467101708E0,3.716411069E-2,-5.389879458E-3,2.115574200E-3,3.761246573E-2
5.477079708E0,4.063554108E-2,-1.079396531E-2,-9.366747690E-4,4.205513341E-2
5.487058708E0,3.338032961E-2,-7.288170047E-3,-3.850174602E-3,3.438295613E-2
5.497037708E0,2.276150696E-2,-6.289484911E-3,-7.763689384E-3,2.485797040E-2
5.507016708E0,8.503980003E-3,-6.485167891E-3,-1.071160845E-2,1.513650006E-2
5.516995708E0,-3.535904922E-3,-2.334897872E-3,-1.305971667E-2,1.372991519E-2
5.526974708E0,-8.405504748E-3,-7.004553452E-3,-1.075015683E-2,1.533890971E-2
5.536953708E0,-9.131748229E-3,-9.667182341E-3,-5.306655541E-3,1.431795492E-2
5.546932708E0,-6.815303117E-3,-7.108742837E-3,-3.216851619E-4,9.853226002E-3
5.556911708E0,-5.047496408E-3,-1.168028917E-3,4.382789135E-3,6.786040977E-3
5.566890708E0,2.764591947E-3,8.232756518E-4,1.204304025E-2,1.238368159E-2
5.576869708E0,8.816359565E-3,5.687539466E-3,1.546413638E-2,1.868731696E-2
5.586848708E0,1.228696760E-2,8.827067912E-3,1.377948560E-2,2.046364884E-2
5.596827708E0,9.080521762E-3,1.255442761E-2,1.201114710E-2,1.960451945E-2
5.606806708E0,-8.226672653E-4,1.081239805E-2,1.122291852E-2,1.560572437E-2
5.616784708E0,-7.493087091E-3,3.586709965E-3,1.284132153E-2,1.529412898E-2
5.626763708E0,-1.745627075E-2,-6.676721852E-3,1.637094282E-2,2.484567914E-2
5.636742708E0,-2.071757801E-2,-1.003230549E-2,1.520927064E-2,2.758961952E-2
5.646721708E0,-1.916709729E-2,-1.136229001E-2,1.270989329E-2,2.565191299E-2
5.656700708E0,-9.645231999E-3,-9.853076190E-3,2.904134803E-3,1.409069231E-2
5.666679708E0,-4.069381393E-4,-2.866060473E-3,-4.308436997E-3,5.190619486E-3
5.676658708E0,8.015574887E-3,-2.387756947E-3,-1.125049964E-2,1.401872198E-2
5.686637792E0,1.443351712E-2,-4.587330390E-3,-1.761645265E-2,2.323164696E-2
5.696616792E0,1.813451201E-2,-6.327439565E-3,-2.207591571E-2,2.926163139E-2
5.706595792E0,1.727828011E-2,-7.134917192E-3,-2.017228678E-2,2.750213011E-2
5.716574792E0,1.523537003E-2,-7.239579223E-3,-1.717916131E-2,2.407595461E-2
5.726553792E0,1.258742344E-2,-4.357430618E-3,-1.609159261E-2,2.088946584E-2
5.736532792E0,1.319781970E-2,-9.971108288E-3,-1.465375349E-2,2.209836955E-2
5.746510792E0,1.294031087E-2,-9.681483731E-3,-1.465122495E-2,2.181378384E-2
5.756489792E0,1.286707353E-2,-6.681698840E-3,-1.454389933E-2,2.053610694E-2
5.766468792E0,7.452567108E-3,-2.325110137E-3,-1.448231097E-2,1.645248385E-2
5.776447792E0,2.635973739E-3,2.546077827E-3,-1.049236301E-2,1.111398000E-2
5.786426792E0,-2.182182623E-3,-2.610258292E-3,-7.287850603E-3,8.042893495E-3
5.796405792E0,-3.198711434E-3,-6.040942390E-3,-5.883033387E-3,9.018582019E-3
5.806384792E0,-3.929533064E-3,-1.207434759E-2,-2.799622482E-3,1.300265303E-2
5.816363792E0,-5.137010477E-3,-1.586322673E-2,-3.291774774E-3,1.699607661E-2
5.826342792E0,-7.963134907E-3,-1.451133378E-2,-5.235149991E-3,1.736079264E-2
5.836321792E0,-9.928015061E-3,-1.441945508E-2,-4.349648952E-3,1.803900257E-2
5.846300792E0,-1.299250126E-2,-1.368415356E-2,-4.269488622E-3,1.934656767E-2
5.856279792E0,-1.211179420E-2,-1.181514561E-2,-4.256439395E-3,1.744736373E-2
5.866258792E0,-1.397331618E-2,-1.348447427E-2,-7.175999228E-3,2.070216357E-2
5.876236792E0,-1.442844979E-2,-1.333027706E-2,-5.072901025E-3,2.028819299E-2
5.886215792E0,-1.042654924E-2,-9.508250281E-3,-7.036579773E-3,1.576810729E-2
5.896194792E0,-4.218188114E-3,-6.118845660E-3,-1.084143762E-2,1.314420605E-2
5.906173792E0,1.079650945E-3,1.394202001E-3,-1.620637625E-2,1.630202677E-2
5.916152792E0,3.226691391E-3,7.549566217E-3,-1.682742685E-2,1.872350880E-2
5.926131792E0,5.093541928E-3,5.938612856E-3,-1.581435837E-2,1.764384376E-2
5.936110792E0,5.965194665E-3,2.265315037E-3,-1.157886628E-2,1.322064083E-2
5.946089792E0,2.969439374E-3,9.532523109E-4,-9.204195812E-3,9.718203575E-3
5.956068792E0,-4.106845707E-3,-4.629532341E-3,-3.647776088E-3,7.183663532E-3
5.966047792E0,-1.262312755E-2,-5.334478337E-3,4.588208976E-4,1.371169300E-2
5.976026792E0,-2.266724035E-2,-6.727850996E-5,2.393873641E-3,2.279339691E-2
5.986005792E0,-2.598772012E-2,-5.453801248E-3,-3.748974297E-3,2.681716527E-2
5.995984792E0,-2.647241578E-2,-1.373063959E-2,-8.672893047E-3,3.105701747E-2
6.005963792E0,-2.764333971E-2,-1.621621661E-2,-1.573393121E-2,3.570261199E-2
6.015941792E0,-2.523797378E-2,-1.534429938E-2,-1.561142690E-2,3.340837461E-2
6.025920792E0,-1.829833351E-2,-1.502339449E-2,-5.645609926E-3,2.433935707E-2
6.035899792E0,-8.602029644E-3,-1.325052697E-2,9.425180033E-4,1.582591922E-2
6.045878792E0,4.539629910E-3,-1.130987518E-2,1.107318141E-2,1.646623402E-2
6.055857792E0,1.311660651E-2,-9.306645021E-3,2.380468883E-2,2.872842178E-2
6.065836792E0,2.007490955E-2,-5.513706245E-3,3.203565255E-2,3.820583704E-2
6.075815792E0,2.569178306E-2,-6.734765135E-3,3.488656878E-2,4.384629357E-2
6.085794792E0,3.089933470E-2,-1.611401699E-2,2.997183800E-2,4.596456789E-2
6.095773792E0,3.033421189E-2,-2.335461974E-2,2.103267238E-2,4.368038440E-2
6.105752792E0,2.889446355E-2,-1.997041889E-2,1.036258508E-2,3.662090692E-2
6.115731792E0,2.537003532E-2,-1.107679307E-2,2.637021011E-3,2.780805489E-2
6.125710792E0,2.616184950E-2,-7.184167858E-3,-4.705983680E-3,2.753544841E-2
6.135689792E0,2.380521782E-2,-7.812939584E-3,-5.136616528E-3,2.557567691E-2
6.145667792E0,1.952419616E-2,-1.250775717E-2,-7.126417477E-4,2.319797585E-2
6.155646792E0,1.413315907E-2,-1.729585603E-2,3.277838696E-3,2.257514225E-2
6.165625792E0,8.011849597E-3,-1.196934283E-2,3.213194897E-3,1.475735488E-2
6.175604792E0,3.115506843E-5,-2.989429981E-3,1.308235805E-3,3.263302494E-3
6.185583792E0,-3.543823492E-3,6.641261280E-6,-1.150402008E-3,3.725876249E-3
6.195562792E0,-3.829314373E-3,-1.552905887E-3,-3.988798708E-3,5.743316150E-3
6.205541792E0,-3.783312626E-3,-5.767179653E-3,-3.217472462E-3,7.610909579E-3
6.215520792E0,-3.340961412E-3,-1.262801606E-2,2.016437938E-3,1.321721736E-2
6.225499792E0,-9.666207246E-3,-1.546913479E-2,4.181919154E-3,1.871411610E-2
6.235478792E0,-1.289875247E-2,-1.064828038E-2,6.402462721E-3,1.790964040E-2
6.245457792E0,-1.890499145E-2,6.680204533E-4,8.752437308E-3,2.084346689E-2
6.255436792E0,-1.797688007E-2,9.725963697E-3,7.622458041E-3,2.181431763E-2
6.265415792E0,-1.727220416E-2,1.525834762E-2,7.481110282E-3,2.423041930E-2
6.275394792E0,-1.114826556E-2,1.741843857E-2,1.012190059E-2,2.302474101E-2
6.285372792E0,-5.293014459E-3,1.599498652E-2,1.385511737E-2,2.181329579E-2
6.295351792E0,-9.853520896E-4,1.191262715E-2,1.710390672E-2,2.086684522E-2
6.305330792E0,4.341399763E-4,1.257835981E-2,1.997112855E-2,2.360613455E-2
6.315309792E0,-5.261958577E-4,1.390834246E-2,2.378317714E-2,2.755645817E-2
6.325288792E0,9.081526659E-4,8.867634460E-3,2.663076855E-2,2.808304677E-2
6.335267792E0,2.426420804E-3,3.718843218E-4,2.683210373E-2,2.694415718E-2
6.345246792E0,9.434466250E-3,-6.462336984E-3,2.644115314E-2,2.880808102E-2
6.355225792E0,1.544894930E-2,-1.895655692E-2,2.100404352E-2,3.223648444E-2
6.365204792E0,1.862374879E-2,-1.678833365E-2,1.348500699E-2,2.846994168E-2
6.375183792E0,1.693077572E-2,-1.891326904E-2,8.528864011E-3,2.677880568E-2
6.385162792E0,1.174351387E-2,-1.832482964E-2,5.045310594E-3,2.234199316E-2
6.395141792E0,8.520822972E-3,-1.809206977E-2,-1.746282913E-3,2.007428497E-2
6.405120792E0,5.294879898E-3,-1.396512054E-2,-5.518510472E-3,1.592213248E-2
6.415098792E0,-1.037584385E-3,-1.130408980E-2,-1.034868602E-2,1.536080499E-2
6.425077792E0,-6.349231116E-3,-2.360986546E-3,-7.572542876E-3,1.016023616E-2
6.435056792E0,-9.787638672E-3,1.268635737E-3,-3.285652027E-3,1.040205829E-2
6.445035792E0,-1.133439876E-2,5.124827847E-3,1.558437711E-3,1.253639437E-2
6.455014792E0,-1.035036054E-2,2.479776274E-3,9.371222695E-4,1.068444906E-2
6.464993792E0,-8.975600824E-3,4.194064531E-3,-7.677678019E-3,1.253388715E-2
6.474972792E0,-1.114447974E-2,1.046101563E-2,-1.724028960E-2,2.304039631E-2
6.484951792E0,-1.053333282E-2,4.577544052E-3,-2.394612320E-2,2.655789574E-2
6.494930792E0,-1.117994823E-2,4.699517041E-3,-2.529341541E-2,2.805055376E-2
6.504909792E0,-9.815083817E-3,1.622099662E-3,-2.099201083E-2,2.322997194E-2
6.514888792E0,-5.942314863E-3,-3.012865782E-3,-1.265418530E-2,1.430093954E-2
6.524867792E0,2.110529225E-3,-1.722104847E-3,-5.468909163E-3,6.109741905E-3
6.534846792E0,5.600068718E-3,-2.258198801E-3,-3.763686633E-3,7.115164689E-3
6.544824792E0,7.682974450E-3,-5.288529675E-3,-5.547542591E-3,1.085227494E-2
6.554803792E0,6.529293023E-3,-5.346053746E-3,-7.539586630E-3,1.131624163E-2
6.564782792E0,6.170328707E-3,-4.921669606E-3,-1.103326119E-2,1.356571563E-2
6.574761792E0,4.308246542E-3,-6.809851155E-3,-1.106894668E-2,1.369148062E-2
6.584740792E0,4.292441066E-3,-1.289080735E-2,-1.254099980E-2,1.848985237E-2
6.594719792E0,5.951590370E-3,-9.546675719E-3,-1.052791625E-2,1.540770800E-2
6.604698792E0,7.756969891E-3,-7.697570138E-3,-7.485055365E-3,1.324572466E-2
6.614677792E0,1.153972372E-2,-5.144397728E-3,-6.209400948E-3,1.407788023E-2
6.624656792E0,1.524740178E-2,1.426958828E-3,-4.998995923E-3,1.610929647E-2
6.634635792E0,1.795823313E-2,5.288009532E-3,-6.026976276E-3,1.966686617E-2
6.644614792E0,1.882988214E-2,5.381019786E-3,-3.716750070E-3,1.993324024E-2
6.654593792E0,2.032205090E-2,-2.180227078E-3,-1.392343314E-3,2.048603824E-2
6.664572792E0,1.498695370E-2,-6.911861245E-3,-2.588370349E-3,1.670575554E-2
6.674551792E0,7.273107767E-3,-8.010415360E-3,8.897180087E-4,1.085617101E-2
6.684529417E0,1.702059526E-4,-8.793712594E-3,3.274376737E-3,9.385088932E-3
6.694508417E0,-5.267436616E-3,-5.340391770E-3,3.269849345E-3,8.182761606E-3
6.704487417E0,-3.428511787E-3,-5.424367264E-4,2.283412032E-3,4.154864761E-3
6.714466417E0,6.526384503E-3,2.291965531E-3,3.928446677E-3,7.954840914E-3
6.724445417E0,1.992846467E-2,3.572142916E-3,1.131863566E-3,2.027769770E-2
6.734424417E0,2.719383314E-2,-3.672048915E-4,-3.300435375E-3,2.739584410E-2
6.744403417E0,2.647713944E-2,2.200337127E-3,-3.499635262E-3,2.679790745E-2
6.754382417E0,1.422819681E-2,4.201170057E-3,7.118876092E-4,1.485254855E-2
6.764361417E0,3.577169497E-3,3.137908410E-3,2.548801247E-3,5.398055075E-3
6.774340417E0,3.007252933E-3,4.695058800E-3,-3.580996534E-3,6.626513678E-3
6.784319417E0,6.522892043E-3,2.458536066E-3,-1.493138913E-2,1.647843747E-2
6.794298417E0,1.648870669E-2,-1.326880883E-3,-2.812522277E-2,3.262922336E-2
6.804277417E0,2.098754793E-2,5.932475906E-4,-3.644812852E-2,4.206299067E-2
6.814256417E0,1.939764060E-2,1.029034983E-2,-4.009213299E-2,4.571147436E-2
6.824234417E0,1.579175703E-2,1.816719212E-2,-3.785694391E-2,4.486172825E-2
6.834213417E0,9.115745313E-3,2.704350837E-2,-2.852229960E-2,4.034810692E-2
6.844192417E0,8.246773854E-3,1.940783113E-2,-1.417145878E-2,2.540675958E-2
6.854171417E0,7.795635145E-3,3.297571093E-3,6.407767069E-4,8.488609852E-3
6.864150417E0,1.193468645E-2,-5.330348853E-3,1.025139727E-2,1.661145706E-2
6.874129417E0,1.556830294E-2,-8.065948263E-3,1.161946356E-2,2.103434124E-2
6.884108417E0,1.887357607E-2,-9.885678068E-3,6.972510368E-3,2.241772525E-2
6.894087417E0,2.426887490E-2,-5.071215797E-3,-3.908899613E-3,2.509930307E-2
6.904066417E0,2.145228535E-2,-6.005062256E-3,-9.904071689E-3,2.437933460E-2
6.914045417E0,1.388464589E-2,-2.741624601E-3,-1.641949452E-2,2.167716996E-2
6.924024417E0,1.628558850E-3,5.341437645E-4,-1.081068348E-2,1.094570193E-2
6.934003417E0,-9.460045025E-3,8.683705237E-4,-6.786381360E-3,1.167482296E-2
6.943982417E0,-2.081654966E-2,6.201355252E-3,9.287938010E-4,2.174047388E-2
6.953960417E0,-2.661771327E-2,1.003683917E-2,6.849533413E-3,2.926015906E-2
6.963939417E0,-3.533269465E-2,8.853647858E-3,1.182825491E-2,3.829744124E-2
6.973918417E0,-4.017219320E-2,5.924169905E-3,1.598757878E-2,4.364061836E-2
6.983897417E0,-4.650492594E-2,7.530719973E-3,1.951347291E-2,5.099211218E-2
6.993876417E0,-5.252979696E-2,9.662047960E-3,2.505631000E-2,5.899621522E-2
7.003855417E0,-5.450425670E-2,1.401744969E-2,3.194024414E-2,6.470998446E-2
7.013834417E0,-4.964238778E-2,2.020583861E-2,3.383881226E-2,6.338539101E-2
7.023813417E0,-4.421861842E-2,2.629668079E-2,2.619907074E-2,5.773381109E-2
7.033792417E0,-3.862038627E-2,3.460814059E-2,1.447716914E-2,5.384093291E-2
7.043771417E0,-3.740858659E-2,3.244940192E-2,6.141733844E-3,4.990077084E-2
7.053750417E0,-3.803442791E-2,2.301968075E-2,7.483000518E-4,4.446440556E-2
7.063729417E0,-3.566531092E-2,1.694087125E-2,-7.871405687E-4,3.949211456E-2
7.073708417E0,-3.579767048E-2,-3.209670074E-3,-6.584842224E-3,3.653950384E-2
7.083686417E0,-3.850024194E-2,-1.713860035E-2,-1.405947004E-2,4.442599407E-2
7.093665417E0,-3.755854815E-2,-3.143950924E-2,-2.608524077E-2,5.549348670E-2
7.103644417E0,-3.432760760E-2,-3.837797791E-2,-3.585651144E-2,6.274506550E-2
7.113623417E0,-2.285178006E-2,-4.795124009E-2,-4.461111873E-2,6.936625399E-2
7.123602417E0,-7.224824280E-3,-4.968973249E-2,-4.950309172E-2,7.051116005E-2
7.133581417E0,1.144100539E-2,-4.239320382E-2,-4.784847051E-2,6.494271680E-2
7.143560417E0,2.850906551E-2,-3.205558658E-2,-4.261301830E-2,6.046649300E-2
7.153539417E0,4.297428951E-2,-1.909797639E-2,-3.641824052E-2,5.947949649E-2
7.163518417E0,5.111211911E-2,-8.668636903E-3,-3.174239397E-2,6.078793927E-2
7.173497417E0,5.350416899E-2,3.988931421E-4,-2.845871449E-2,6.060324781E-2
7.183476417E0,5.016008019E-2,6.682830863E-4,-2.502150461E-2,5.605850462E-2
7.193455417E0,4.253065959E-2,-3.895043395E-3,-1.971781999E-2,4.704062917E-2
7.203434417E0,2.668596618E-2,-1.601613872E-2,-1.420614589E-2,3.421216262E-2
7.213413417E0,7.815872319E-3,-2.442826703E-2,-7.962099276E-3,2.685559746E-2
7.223391417E0,-1.035300270E-2,-2.444657311E-2,-2.913878765E-3,2.670786946E-2
7.233370417E0,-2.232124843E-2,-2.308489941E-2,-1.676270040E-4,3.211197302E-2
7.243349417E0,-2.563826926E-2,-2.413440123E-2,2.786583791E-4,3.521175690E-2
7.253328417E0,-2.660366334E-2,-2.535253018E-2,4.030548735E-5,3.674924917E-2
7.263307417E0,-2.828066610E-2,-2.069606259E-2,5.482371780E-4,3.504887510E-2
7.273286417E0,-3.128577769E-2,-1.456413418E-2,3.231105627E-3,3.466055299E-2
7.283265417E0,-3.433504328E-2,-1.133962907E-2,5.504175555E-3,3.657565219E-2
7.293244417E0,-3.426926211E-2,-8.118802682E-3,9.424348362E-3,3.645703806E-2
7.303223417E0,-3.549484536E-2,-6.175624672E-3,1.343813073E-2,3.845264288E-2
7.313202417E0,-3.365273774E-2,-3.010457847E-3,1.879587956E-2,3.866335089E-2
7.323181417E0,-2.846522816E-2,-2.094881143E-3,1.307861041E-2,3.139598368E-2
7.333160417E0,-1.758142002E-2,-5.732492544E-3,9.234099998E-4,1.851541214E-2
7.343139417E0,-9.880845435E-3,-9.101511911E-3,-8.629751392E-3,1.596687930E-2
7.353118417E0,-4.329752177E-3,-6.145136897E-3,-1.488977764E-2,1.667977636E-2
7.363096417E0,-2.919342602E-3,-2.249198966E-3,-1.817824878E-2,1.854805073E-2
7.373075417E0,-5.605807528E-4,3.011609428E-3,-2.391496301E-2,2.411036080E-2
7.383054417E0,5.197841674E-4,7.061564829E-4,-2.612864785E-2,2.614335615E-2
7.393033417E0,3.874568269E-3,-1.041094307E-2,-2.354378439E-2,2.603285997E-2
7.403012417E0,6.761378609E-4,-2.537523955E-2,-1.933332533E-2,3.190826559E-2
7.412991417E0,-6.025440991E-3,-3.836347535E-2,-1.180643309E-2,4.058884136E-2
7.422970417E0,-1.585567556E-2,-4.268098623E-2,-4.924825858E-3,4.579653854E-2
7.432949417E0,-2.517167851E-2,-3.894670308E-2,4.765976628E-4,4.637549164E-2
7.442928417E0,-2.661936358E-2,-3.690105677E-2,4.259550944E-3,4.569925910E-2
7.452907417E0,-2.105575427E-2,-3.059522621E-2,4.128789529E-3,3.736923277E-2
7.462886417E0,-1.576939598E-2,-2.454952151E-2,1.000259165E-2,3.084484876E-2
7.472865417E0,-8.732791059E-3,-2.147010714E-2,1.597153395E-2,2.814812671E-2
7.482844417E0,-3.545207204E-3,-1.432511024E-2,1.288413163E-2,1.959025588E-2
7.492823417E0,-9.731261525E-4,-8.432067931E-3,1.104175672E-2,1.392720846E-2
7.502801417E0,-1.515371259E-3,-9.039806202E-3,8.497639559E-3,1.249897293E-2
7.512780417E0,-6.810002029E-3,-1.129976474E-2,6.627568044E-3,1.476433097E-2
7.522759417E0,-1.525730919E-2,-1.223241165E-2,4.932731856E-3,2.016802475E-2
7.532738417E0,-2.821864560E-2,-9.879773483E-3,-7.651015767E-4,2.990797994E-2
7.542717417E0,-4.503267631E-2,-1.041916665E-2,6.840493297E-4,4.622736087E-2
7.552696417E0,-6.002733484E-2,-1.569968089E-2,9.972089902E-3,6.284268840E-2
7.562675417E0,-6.924299151E-2,-1.399394311E-2,1.353407558E-2,7.192769646E-2
7.572654417E0,-7.174955308E-2,-6.443350110E-3,1.579083875E-2,7.374866586E-2
7.582633417E0,-6.655697525E-2,2.832491882E-4,1.041365042E-2,6.736731625E-2
7.592612417E0,-5.675893649E-2,3.237493802E-3,4.840544425E-4,5.685325450E-2
7.602591417E0,-5.458467454E-2,1.460374705E-2,-7.353763096E-3,5.698099643E-2
7.612570417E0,-5.488028750E-2,1.933005825E-2,-2.286300296E-3,5.822992596E-2
7.622549417E0,-6.075714156E-2,1.467037946E-2,9.228077717E-3,6.318075421E-2
7.632527417E0,-6.411644816E-2,6.646274123E-3,2.399637178E-2,6.878166720E-2
7.642506417E0,-5.630614236E-2,-1.303906552E-2,3.611408547E-2,6.815149350E-2
7.652485417E0,-3.430177644E-2,-3.030993231E-2,3.832371160E-2,5.969933613E-2
7.662464417E0,-1.134161185E-2,-3.632122278E-2,3.121919744E-2,4.921891580E-2
7.672443417E0,1.211204939E-2,-3.585250676E-2,2.080943249E-2,4.318722568E-2
7.682422417E0,2.188104764E-2,-2.537010796E-2,9.805317968E-3,3.490797737E-2
7.692401417E0,2.536925487E-2,-1.572227292E-2,2.625435824E-3,2.996133962E-2
7.702380417E0,2.912859619E-2,-1.512858272E-2,-3.171002259E-3,3.297581517E-2
7.712359417E0,2.787717618E-2,-1.747615822E-2,-1.031519845E-2,3.448124674E-2
7.722338417E0,2.904786170E-2,-1.889902912E-2,-1.440507919E-2,3.752942682E-2
7.732317417E0,2.342033572E-2,-2.061197534E-2,-1.703361981E-2,3.554588382E-2
7.742296417E0,2.141713351E-2,-2.683983743E-2,-1.928578876E-2,3.938289133E-2
7.752275417E0,1.830363274E-2,-2.505871467E-2,-1.761385612E-2,3.568206945E-2
7.762254417E0,1.408573985E-2,-1.994324103E-2,-2.050451934E-2,3.188379280E-2
7.772232417E0,1.170860231E-2,-1.491599157E-2,-1.678035595E-2,2.532110816E-2
7.782211417E0,9.044353850E-3,-1.126646996E-2,-6.201678887E-3,1.572242039E-2
7.792190417E0,8.721046150E-3,-1.356797293E-2,3.114857944E-3,1.642707750E-2
7.802169417E0,1.110191550E-2,-1.743601449E-2,1.120614074E-2,2.351265020E-2
7.812148417E0,1.572622918E-2,-1.751377806E-2,1.572046429E-2,2.830511797E-2
7.822127417E0,1.569608413E-2,-1.490895264E-2,1.645443216E-2,2.719176830E-2
7.832106417E0,1.696561277E-2,-8.404981345E-3,1.457077824E-2,2.389107169E-2
7.842085417E0,1.181031670E-2,-5.624628160E-3,1.119042747E-2,1.721469400E-2
7.852064417E0,7.276817225E-3,-4.773748107E-3,1.075739786E-2,1.383699204E-2
7.862043417E0,2.947325818E-3,-3.621063195E-3,1.059567649E-2,1.157873864E-2
7.872022417E0,-2.309487900E-3,-2.923048567E-3,1.242979523E-2,1.297604550E-2
7.882001417E0,-2.801894443E-3,-5.464232527E-3,1.533104107E-2,1.651512246E-2
7.891980417E0,-7.097148336E-4,-5.452514626E-3,1.405245718E-2,1.508990270E-2
7.901959417E0,2.253045794E-3,-8.737659082E-3,1.362249069E-2,1.633998636E-2
7.911937417E0,5.744183436E-3,-1.145008951E-2,1.110979822E-2,1.695664500E-2
7.921916417E0,7.425656542E-3,-1.172660477E-2,3.902022494E-3,1.441802393E-2
7.931895417E0,1.241668686E-2,-7.439713925E-3,-2.967601409E-3,1.477599790E-2
7.941874417E0,1.606658101E-2,-3.760148771E-3,-9.820049629E-3,1.920174781E-2
7.951853417E0,1.840749942E-2,2.247676253E-3,-1.573732682E-2,2.432183255E-2
7.961832417E0,1.721813716E-2,2.844891511E-3,-2.031676657E-2,2.678299197E-2
7.971811417E0,1.492728572E-2,6.658930797E-4,-1.980810240E-2,2.481185590E-2
7.981790417E0,1.376799960E-2,-6.170178298E-3,-1.622215472E-2,2.215371790E-2
7.991769417E0,1.128247194E-2,-9.589677677E-3,-1.099250559E-2,1.844156366E-2
8.001748417E0,6.585723720E-3,-1.066193171E-2,-3.632260719E-3,1.304767652E-2
8.011727417E0,2.243173309E-3,-9.322362021E-3,4.916441976E-4,9.601040264E-3
8.021706417E0,6.753830239E-4,-3.097219393E-3,1.606442267E-3,3.553810202E-3
8.031685417E0,2.828282537E-3,-1.138996799E-3,-1.268173801E-3,3.302235698E-3
8.041663417E0,6.053933874E-3,-5.870470777E-4,-3.418014850E-3,6.976930925E-3
8.051642417E0,6.641160697E-3,-4.274193663E-3,-2.326118993E-3,8.233138918E-3
8.061621417E0,6.852854509E-3,-1.295923628E-2,1.771624549E-3,1.476624778E-2
8.071600417E0,5.644312128E-3,-1.896972395E-2,7.606077474E-3,2.120285596E-2
8.081579417E0,7.600080222E-3,-1.857732423E-2,9.680015966E-3,2.228409531E-2
8.091558417E0,7.848020643E-3,-1.500682347E-2,8.923145942E-3,1.914206656E-2
8.101537417E0,9.700851515E-3,-4.469074775E-3,6.466243416E-3,1.248564990E-2
8.111516417E0,1.039274037E-2,8.781483397E-3,2.073891694E-3,1.376315842E-2
8.121495417E0,1.042923518E-2,1.195364352E-2,2.002184745E-3,1.598959923E-2
8.131474417E0,6.839559879E-3,1.357897092E-2,5.156698637E-3,1.605489244E-2
8.141453417E0,4.366273060E-3,7.826473564E-3,8.646040224E-3,1.245279248E-2
8.151432417E0,-2.463669749E-3,-2.797941212E-3,9.665764868E-3,1.035978543E-2
8.161411417E0,-7.827509195E-3,-7.894621231E-3,1.295469608E-2,1.707100159E-2
8.171390417E0,-1.185207814E-2,-1.822608896E-2,1.058315113E-2,2.417985035E-2
8.181369417E0,-1.841361262E-2,-2.573721297E-2,9.190523997E-3,3.295346708E-2
8.191347417E0,-1.939818449E-2,-2.647304535E-2,6.264509633E-3,3.341191064E-2
8.201326417E0,-2.115794644E-2,-2.135296725E-2,4.336502403E-3,3.037125550E-2
8.211305417E0,-1.642950438E-2,-2.004668675E-2,1.135649392E-3,2.594393886E-2
8.221284417E0,-9.401225485E-3,-2.132802270E-2,-2.190825297E-3,2.341083742E-2
8.231263417E0,9.536771104E-4,-2.152163535E-2,-3.004421014E-3,2.175124902E-2
8.241242417E0,7.715167478E-3,-1.825001091E-2,-6.798559334E-3,2.094772342E-2
8.251221417E0,1.096688677E-2,-1.166667603E-2,-3.700770438E-3,1.643409982E-2
8.261200417E0,1.569325477E-2,-3.564657643E-3,-3.036718816E-3,1.637701714E-2
8.271179417E0,2.122943290E-2,1.622647513E-3,-8.000851609E-3,2.274500896E-2
8.281158417E0,3.262507170E-2,1.296468079E-3,-1.303135790E-2,3.515526165E-2
8.291137417E0,4.047793522E-2,-5.557709374E-3,-2.067862451E-2,4.579254181E-2
8.301116417E0,4.221116006E-2,-1.080978289E-2,-3.073386289E-2,5.332170073E-2
8.311095417E0,3.178514913E-2,-7.039811462E-3,-3.551290557E-2,4.817697699E-2
8.321073417E0,1.677019335E-2,2.373903990E-4,-3.047246486E-2,3.478314037E-2
8.331052417E0,2.936403500E-3,-6.691496819E-4,-2.038680762E-2,2.060806036E-2
8.341031417E0,-3.504181979E-3,3.573200433E-3,-1.712703146E-2,1.784326930E-2
8.351010417E0,1.267403713E-3,2.075172262E-3,-2.095878683E-2,2.109936960E-2
8.360989417E0,5.113858730E-3,-7.412121631E-3,-2.452443540E-2,2.612544794E-2
8.370968417E0,4.809725564E-3,-3.294874914E-3,-2.804673277E-2,2.864627165E-2
8.380947417E0,1.030626590E-3,7.507097907E-4,-2.697080560E-2,2.700092797E-2
8.390926417E0,-8.570601232E-3,9.473893791E-3,-1.777570881E-2,2.189031048E-2
8.400905417E0,-2.008153126E-2,9.074368514E-3,-2.264333656E-3,2.215263570E-2
8.410884417E0,-2.615540288E-2,8.021354675E-3,1.452423353E-2,3.097419233E-2
8.420863417E0,-2.831762843E-2,2.247752855E-3,2.851368673E-2,4.024886090E-2
8.430842417E0,-2.614129335E-2,-5.623752251E-3,3.660010919E-2,4.532727435E-2
8.440821417E0,-2.179661579E-2,-8.401364088E-3,3.300051391E-2,4.043153840E-2
8.450800417E0,-1.402444486E-2,-3.775186371E-3,2.178354748E-2,2.618129153E-2
8.460778417E0,-6.249331869E-3,7.729873993E-3,8.044095710E-3,1.278720362E-2
8.470757417E0,2.028187737E-5,1.596197113E-2,-3.540921491E-3,1.635001709E-2
8.480736417E0,3.367330646E-3,2.080652490E-2,-8.239533752E-3,2.263051724E-2
8.490715417E0,4.218476824E-3,2.253970876E-2,-1.070375741E-2,2.530621348E-2
8.500694417E0,4.405433778E-3,1.265212521E-2,-8.754789829E-3,1.600407648E-2
8.510673417E0,3.184108296E-3,6.667469628E-3,-4.249786492E-3,8.523753992E-3
8.520652417E0,1.238516998E-4,-2.055054531E-3,-6.410669885E-4,2.156282739E-3
8.530631417E0,-2.135574119E-3,-6.761393044E-3,5.280607147E-4,7.110271502E-3
8.540610417E0,-5.745768547E-3,-6.593084894E-3,-1.728818170E-4,8.747143119E-3
8.550589417E0,-5.037100986E-3,-5.806387402E-3,-2.784643788E-3,8.175619978E-3
8.560568417E0,4.996298812E-4,-1.029793546E-2,-9.244277142E-3,1.384751835E-2
8.570547417E0,2.612049226E-3,-9.321620688E-3,-1.561375987E-2,1.837130672E-2
8.580526417E0,3.538281191E-3,-7.861614227E-3,-1.948153228E-2,2.130386143E-2
8.590505417E0,-1.701705623E-4,-3.537706099E-3,-2.280755341E-2,2.308091885E-2
8.600483417E0,-5.139344838E-3,-2.954346128E-4,-1.670159400E-2,1.747693878E-2
8.610462417E0,-1.782504469E-2,5.972315092E-3,-3.321606666E-3,1.909015025E-2
8.620441417E0,-2.631386183E-2,1.755926572E-2,1.583337784E-2,3.537574015E-2
8.630420417E0,-2.697139606E-2,1.837845333E-2,2.668496035E-2,4.215816482E-2
8.640399417E0,-2.349258587E-2,1.755045541E-2,2.710867487E-2,3.993495122E-2
8.650378417E0,-1.848717406E-2,1.297514513E-2,2.661652304E-2,3.490801190E-2
8.660357417E0,-1.610754803E-2,1.566276699E-2,2.103486098E-2,3.077727652E-2
8.670336417E0,-1.939788461E-2,1.483692136E-2,1.755304448E-2,3.007526447E-2
8.680315417E0,-1.721142791E-2,7.784804795E-3,1.414532959E-2,2.359929630E-2
8.690294542E0,-1.509474590E-2,-2.673428971E-3,8.345763199E-3,1.745423558E-2
8.700273542E0,-7.766016759E-3,-1.195295528E-2,7.465327159E-3,1.609084416E-2
8.710252542E0,6.516515743E-3,-1.985668391E-2,3.442888614E-3,2.118032944E-2
8.720231542E0,1.654142886E-2,-2.423865721E-2,-1.118303975E-3,2.936634087E-2
8.730210542E0,2.212634310E-2,-1.705584675E-2,-4.602251109E-3,2.831356005E-2
8.740189542E0,2.687956579E-2,-3.357340116E-3,-8.327748626E-3,2.833962221E-2
8.750167542E0,2.815388888E-2,2.900555730E-3,-8.102978580E-3,2.943998887E-2
8.760146542E0,2.906016819E-2,-1.212561503E-3,-4.456179217E-3,2.942484008E-2
8.770125542E0,2.748464234E-2,-7.902689278E-3,-3.612756031E-3,2.882551073E-2
8.780104542E0,1.971463114E-2,-1.173716504E-2,-2.637444995E-3,2.309510425E-2
8.790083542E0,1.011207048E-2,-1.522297692E-2,-4.749583895E-4,1.828164601E-2
8.800062542E0,-2.335599391E-3,-1.773368940E-2,-4.407285014E-4,1.789226106E-2
8.810041542E0,-1.245001890E-2,-1.924530044E-2,-8.804163663E-4,2.293817108E-2
8.820020542E0,-1.991267689E-2,-2.105709910E-2,-1.618319191E-3,2.902645484E-2
8.829999542E0,-1.984236948E-2,-2.038970962E-2,-1.742156222E-3,2.850429781E-2
8.839978542E0,-1.328963600E-2,-1.623896509E-2,-1.205736306E-3,2.101837797E-2
8.849957542E0,-2.487320919E-3,-1.039598882E-2,1.032074215E-4,1.068990181E-2
8.859936542E0,8.876638487E-3,1.712292433E-4,-1.546683256E-3,9.012006401E-3
8.869915542E0,1.467673760E-2,1.151096914E-2,-6.390972994E-3,1.971683476E-2
8.879894542E0,1.185725722E-2,1.651911438E-2,-7.009428460E-3,2.150831876E-2
8.889872542E0,2.995056333E-3,1.615559310E-2,-7.178805303E-3,1.793066637E-2
8.899851542E0,-7.675966248E-3,1.207329705E-2,-5.151140038E-3,1.520589370E-2
8.909830542E0,-1.936218329E-2,4.495006055E-3,-2.930063754E-3,2.009190122E-2
8.919809542E0,-2.847505920E-2,2.008855809E-3,6.916475832E-4,2.855420940E-2
8.929788542E0,-3.189322352E-2,3.916744608E-3,3.838971257E-3,3.236133952E-2
8.939767542E0,-3.146706522E-2,1.139298640E-2,1.986801857E-3,3.352497150E-2
8.949746542E0,-2.503633313E-2,1.771559753E-2,-4.020536435E-4,3.067282216E-2
8.959725542E0,-1.767965406E-2,1.796965115E-2,-9.605032392E-5,2.520888248E-2
8.969704542E0,-1.294348668E-2,2.432981133E-2,3.018782940E-3,2.772339477E-2
8.979683542E0,-9.037927724E-3,1.640112698E-2,1.280183345E-2,2.268409230E-2
8.989662542E0,-4.164076876E-3,-1.371212304E-3,2.421614155E-2,2.460977999E-2
8.999641542E0,2.606492257E-3,-1.479893178E-2,3.000538424E-2,3.355778996E-2
9.009620542E0,7.438265719E-3,-2.383663505E-2,3.006317466E-2,3.908078094E-2
9.019598542E0,1.169235352E-2,-1.987925917E-2,2.470417134E-2,3.379633350E-2
9.029577542E0,1.000417583E-2,-1.289325580E-2,1.847450435E-2,2.465008905E-2
9.039556542E0,6.235796958E-3,-5.699660163E-3,1.667753793E-2,1.869522830E-2
9.049535542E0,6.344454363E-3,-1.055140793E-2,1.384819485E-2,1.852988967E-2
9.059514542E0,8.927431889E-3,-1.238932647E-2,1.432683319E-2,2.093925977E-2
9.069493542E0,7.127933670E-3,-1.248546690E-2,9.976559319E-3,1.749931593E-2
9.079472542E0,7.111459970E-3,-1.031444781E-2,5.208166316E-3,1.356781828E-2
9.089451542E0,3.781176871E-3,-4.631527700E-3,-4.006637726E-3,7.197325422E-3
9.099430542E0,-5.894862115E-3,-2.838147338E-3,-7.831208408E-3,1.020452374E-2
9.109409542E0,-1.717947423E-2,7.707022596E-4,-6.880991627E-3,1.852232066E-2
9.119388542E0,-2.897593193E-2,4.742313176E-4,-5.763200112E-3,2.954731802E-2
9.129367542E0,-3.946851939E-2,-3.931601532E-4,-7.743527181E-3,4.022288914E-2
9.139346542E0,-4.484362528E-2,-4.552935716E-4,-8.352249861E-3,4.561708121E-2
9.149325542E0,-4.540209100E-2,1.011575572E-3,-7.637457456E-3,4.605110106E-2
9.159304542E0,-3.831939027E-2,-9.577590972E-4,-4.204712808E-3,3.856128347E-2
9.169282542E0,-2.598362789E-2,1.001528581E-3,6.004286697E-4,2.600985375E-2
9.179261542E0,-1.327980589E-2,1.168640144E-2,9.188587777E-3,1.993377457E-2
9.189240542E0,3.451935481E-4,1.248055603E-2,1.699644513E-2,2.108939508E-2
9.199219542E0,1.288598217E-2,1.290425286E-2,2.498406917E-2,3.093173113E-2
9.209198542E0,2.345340513E-2,2.610602649E-3,2.716679499E-2,3.598488861E-2
9.219177542E0,3.265439346E-2,-1.354831550E-2,2.553340606E-2,4.360987378E-2
9.229156542E0,3.739881516E-2,-2.574452758E-2,2.041694149E-2,4.978256296E-2
9.239135542E0,3.776598349E-2,-4.027775303E-2,1.604224183E-2,5.749713402E-2
9.249114542E0,3.256722540E-2,-4.181785882E-2,8.872745559E-3,5.374088853E-2
9.259093542E0,2.593916282E-2,-3.911128640E-2,4.129656125E-3,4.711249252E-2
9.269072542E0,1.651050709E-2,-3.532400727E-2,6.678833626E-3,3.955994379E-2
9.279051542E0,9.005236439E-3,-2.721360140E-2,1.002162881E-2,3.036622183E-2
9.289030542E0,1.702848938E-3,-2.430063672E-2,1.052762941E-2,2.653773955E-2
9.299009542E0,7.992445026E-4,-2.366187423E-2,1.096265577E-2,2.609028374E-2
9.308987542E0,-1.638879534E-3,-2.758444473E-2,7.402010262E-3,2.860729406E-2
9.318966542E0,3.873288166E-3,-3.066000901E-2,-1.751136617E-3,3.095327112E-2
9.328945542E0,6.268801168E-3,-2.654941939E-2,-6.705149077E-3,2.809143218E-2
9.338924542E0,8.350649849E-3,-2.341579460E-2,-8.760716766E-3,2.635873570E-2
9.348903542E0,9.085415863E-3,-2.167967893E-2,-2.556883264E-3,2.364510334E-2
9.358882542E0,7.455564104E-3,-1.537151542E-2,5.195111968E-3,1.785659852E-2
9.368861542E0,5.292545073E-3,-1.511425432E-2,1.738679595E-2,2.363794387E-2
9.378840542E0,2.233874286E-3,-1.351570152E-2,2.604620531E-2,2.942905355E-2
9.388819542E0,-1.291085733E-3,-1.610402763E-2,3.064441867E-2,3.464227192E-2
9.398798542E0,-1.139703672E-2,-2.043054812E-2,3.463057429E-2,4.179206166E-2
9.408777542E0,-2.550246939E-2,-2.822748572E-2,3.680744022E-2,5.293349177E-2
9.418756542E0,-4.069386050E-2,-3.320364654E-2,3.940141946E-2,6.565778158E-2
9.428735542E0,-5.445281789E-2,-3.286675364E-2,3.740777820E-2,7.378803928E-2
9.438714542E0,-6.442423910E-2,-2.531416900E-2,3.326323628E-2,7.679669670E-2
9.448692542E0,-7.325474918E-2,-1.247640140E-2,2.723224275E-2,7.914236485E-2
9.458671542E0,-8.254685253E-2,5.697922781E-3,2.186477743E-2,8.558339604E-2
9.468650542E0,-8.952007443E-2,2.657097951E-2,1.681915112E-2,9.488279360E-2
9.478629542E0,-9.171551466E-2,4.214683175E-2,8.850104176E-3,1.013233211E-1
9.488608542E0,-8.812690526E-2,4.859647527E-2,5.927818362E-3,1.008122407E-1
9.498587542E0,-7.031568885E-2,3.725726530E-2,2.868112409E-3,7.962804773E-2
9.508566542E0,-4.927378148E-2,2.444213629E-2,-2.042490290E-3,5.504085150E-2
9.518545542E0,-2.909530513E-2,7.690644823E-3,-9.820049629E-3,3.165621855E-2
9.528524542E0,-1.762214117E-2,5.228818394E-3,-2.100372873E-2,2.791123469E-2
9.538503542E0,-1.463962998E-2,7.201166824E-3,-2.657186985E-2,3.118076069E-2
9.548482542E0,-1.555628981E-2,7.116744760E-3,-3.337358311E-2,3.750256336E-2
9.558461542E0,-1.807136647E-2,7.258428726E-3,-3.636671230E-2,4.125284036E-2
9.568440542E0,-2.394070849E-2,4.500193056E-3,-3.327051923E-2,4.123513926E-2
9.578419542E0,-2.584357560E-2,3.319134703E-3,-2.870965190E-2,3.877049351E-2
9.588397542E0,-1.837314293E-2,3.782524727E-3,-2.252019942E-2,2.930937147E-2
9.598376542E0,-8.567681536E-3,1.007942669E-2,-1.454256475E-2,1.965925224E-2
9.608355542E0,8.400648832E-3,1.297215279E-2,-7.756831124E-3,1.729208137E-2
9.618334542E0,2.451898530E-2,1.837893017E-2,-2.484316472E-3,3.074308935E-2
9.628313542E0,3.718897700E-2,2.056778222E-2,7.013568538E-4,4.250347724E-2
9.638292542E0,4.233174026E-2,2.889506519E-2,-4.207547754E-4,5.125502961E-2
9.648271542E0,3.741341457E-2,2.484599501E-2,-6.539100781E-3,4.538553621E-2
9.658250542E0,2.491471544E-2,1.231523883E-2,-1.317990106E-2,3.075903029E-2
9.668229542E0,2.364931861E-3,5.483432207E-3,-1.695200242E-2,1.797307201E-2
9.678208542E0,-3.036877699E-2,1.113432832E-2,-1.626483910E-2,3.620470790E-2
9.688187333E0,-5.607307702E-2,1.988920569E-2,-1.170950383E-2,6.063730659E-2
9.698166333E0,-6.720273942E-2,1.756451465E-2,-9.699873626E-3,7.013421354E-2
9.708145333E0,-6.622642279E-2,1.420333982E-2,-1.325945463E-2,6.901801992E-2
9.718124333E0,-5.826064944E-2,1.247927547E-2,-1.919224672E-2,6.259694820E-2
9.728103333E0,-4.504737630E-2,1.917366311E-2,-2.873461880E-2,5.676771782E-2
9.738081333E0,-3.258105367E-2,3.622876853E-2,-4.206980765E-2,6.437326653E-2
9.748060333E0,-2.096248046E-2,5.384584516E-2,-5.094266310E-2,7.703217219E-2
9.758039333E0,-6.265576929E-3,5.932382494E-2,-5.630186945E-2,8.202727695E-2
9.768018333E0,1.065348554E-2,4.787755758E-2,-5.625766143E-2,7.463699983E-2
9.777997333E0,1.934126765E-2,2.576307766E-2,-5.388598889E-2,6.278153075E-2
9.787976333E0,1.350122131E-2,-4.637339152E-4,-4.663446546E-2,4.855173936E-2
9.797955333E0,4.027341492E-5,-1.884833351E-2,-3.238415718E-2,3.746992039E-2
9.807934333E0,-1.562390663E-2,-2.594672330E-2,-1.327544451E-2,3.306926572E-2
9.817913333E0,-2.427815832E-2,-2.712957934E-2,-1.499138307E-4,3.640694330E-2
9.827892333E0,-2.333646454E-2,-2.085783705E-2,7.603080943E-3,3.220942073E-2
9.837871333E0,-1.608015224E-2,-1.233645342E-2,9.946063161E-3,2.257617221E-2
9.847850333E0,-6.343634799E-3,-1.720362343E-5,1.113969181E-2,1.281931090E-2
9.857829333E0,3.988104407E-3,1.115276106E-2,1.098935585E-2,1.615719648E-2
9.867808333E0,1.175148506E-2,1.779495180E-2,1.607386395E-2,2.670443433E-2
9.877786333E0,2.428090200E-2,1.942468807E-2,2.417186089E-2,3.938476314E-2
9.887765333E0,3.272205591E-2,1.770881191E-2,3.035545349E-2,4.801862679E-2
9.897744333E0,4.020073637E-2,1.872740127E-2,3.596813604E-2,5.710097699E-2
9.907723333E0,4.282288626E-2,1.942488365E-2,3.460992500E-2,5.838640767E-2
9.917702333E0,4.086810350E-2,1.703888364E-2,2.619786933E-2,5.144758301E-2
9.927681333E0,3.539717197E-2,4.203779157E-3,1.529728342E-2,3.878966902E-2
9.937660333E0,2.258067578E-2,-1.213665493E-2,4.188244231E-3,2.597550195E-2
9.947639333E0,7.859520614E-3,-2.682239003E-2,2.309384290E-3,2.804542614E-2
9.957618333E0,-5.587506574E-3,-3.922923654E-2,3.194605000E-3,3.975372600E-2
9.967597333E0,-1.735814661E-2,-4.434969276E-2,8.887377568E-3,4.844776550E-2
9.977576333E0,-1.527616847E-2,-4.008952901E-2,9.463767521E-3,4.393284142E-2
9.987555333E0,-1.338505838E-2,-2.792341076E-2,4.929203074E-3,3.135560076E-2
9.997534333E0,-3.930002917E-3,-8.520341478E-3,-2.988711465E-3,9.847514308E-3
1.000751333E1,2.782228170E-3,1.255964395E-2,-1.194145996E-2,1.755231938E-2
1.001749133E1,3.030733904E-3,3.431348503E-2,-1.854856871E-2,3.912352239E-2
1.002747033E1,-3.053257475E-3,5.180432647E-2,-1.843804866E-2,5.507242741E-2
1.003744933E1,-9.931442328E-3,5.540364608E-2,-1.239379682E-2,5.763509127E-2
1.004742833E1,-2.177771740E-2,5.171756446E-2,-2.734245267E-3,5.618230634E-2
1.005740733E1,-3.595716879E-2,4.349605739E-2,7.345883176E-3,5.691034173E-2
1.006738633E1,-4.606439918E-2,3.329588473E-2,1.692713797E-2,5.930491389E-2
1.007736533E1,-5.549358577E-2,2.121978067E-2,1.762408763E-2,6.197116763E-2
1.008734433E1,-5.686404929E-2,1.126994379E-2,1.421870291E-2,5.968838452E-2
1.009732333E1,-5.051852390E-2,-4.999236669E-3,6.760718301E-3,5.121348393E-2
1.010730233E1,-3.595849127E-2,-2.101095952E-2,-7.737797219E-3,4.235973347E-2
1.011728133E1,-1.539833006E-2,-2.779941447E-2,-2.381843515E-2,3.971440376E-2
1.012726033E1,6.245180964E-3,-3.195980564E-2,-3.759124130E-2,4.973462460E-2
1.013723933E1,2.743835375E-2,-2.216582932E-2,-4.377689585E-2,5.621924809E-2
1.014721833E1,4.695160314E-2,-9.700903669E-3,-4.514682665E-2,6.585435845E-2
1.015719633E1,6.110437959E-2,2.408202272E-3,-4.561153427E-2,7.628864071E-2
1.016717533E1,6.872661412E-2,9.715650231E-3,-4.611301050E-2,8.333157315E-2
1.017715433E1,7.065453380E-2,1.328217611E-2,-4.391378164E-2,8.424309804E-2
1.018713333E1,6.196623668E-2,1.527768280E-2,-4.094569013E-2,7.582724853E-2
1.019711233E1,4.744346440E-2,9.238624014E-3,-3.383364901E-2,5.899957875E-2
1.020709133E1,2.609343641E-2,4.721636884E-3,-2.262387052E-2,3.485686153E-2
1.021707033E1,7.633420639E-3,2.314656042E-3,-1.316404808E-2,1.539217026E-2
1.022704933E1,-3.618701128E-3,-5.745667033E-3,-4.004637711E-3,7.883198000E-3
1.023702833E1,-1.069122367E-2,-1.000478398E-2,9.956418071E-4,1.467614624E-2
1.024700733E1,-1.470221207E-2,-1.034114044E-2,5.557370372E-3,1.881431877E-2
1.025698633E1,-1.679788344E-2,-7.212868426E-3,1.204976253E-2,2.189500253E-2
1.026696533E1,-1.534353010E-2,7.818279788E-3,1.643838547E-2,2.380693033E-2
1.027694433E1,-1.364041492E-2,1.887147129E-2,2.177988365E-2,3.188348600E-2
1.028692333E1,-1.246649306E-2,2.643857524E-2,2.812859416E-2,4.056635945E-2
1.029690233E1,-1.033436414E-2,3.112540767E-2,3.665050864E-2,4.918180424E-2
1.030688033E1,-9.180949070E-3,2.726435661E-2,3.963617980E-2,4.897613416E-2
1.031685933E1,-6.729239132E-3,2.044872940E-2,4.275746644E-2,4.787101554E-2
1.032683833E1,-2.982704435E-3,1.239533070E-2,4.039365053E-2,4.235785349E-2
1.033681733E1,-3.943031654E-3,9.315720759E-3,3.467204422E-2,3.611759685E-2
1.034679633E1,-7.583838888E-3,5.288222339E-3,3.043761663E-2,3.181082228E-2
1.035677533E1,-1.508435328E-2,-5.235893186E-4,2.501861565E-2,2.921888068E-2
1.036675433E1,-1.822235808E-2,-1.751306467E-3,2.478825115E-2,3.081523654E-2
1.037673333E1,-2.001522668E-2,-1.661702059E-3,2.361340448E-2,3.099941006E-2
1.038671233E1,-2.246986330E-2,3.018004820E-3,2.549972199E-2,3.412094564E-2
1.039669133E1,-2.108635567E-2,1.546655037E-2,2.621118724E-2,3.702532799E-2
1.040667033E1,-1.793050952E-2,2.362061664E-2,2.165425196E-2,3.671979480E-2
1.041664933E1,-1.126222126E-2,2.496231720E-2,1.439633779E-2,3.093880168E-2
1.042662833E1,-3.557696240E-3,2.376708947E-2,1.054886915E-2,2.624519737E-2
1.043660733E1,1.769384486E-3,2.068054304E-2,4.721543752E-3,2.128634673E-2
1.044658533E1,8.716506884E-3,1.614757441E-2,-2.106535016E-3,1.847049380E-2
1.045656433E1,1.427138969E-2,1.071261428E-2,-8.238736540E-3,1.965475638E-2
1.046654333E1,1.849250123E-2,5.439023022E-3,-1.496428438E-2,2.440256913E-2
1.047652233E1,2.404520288E-2,-1.558162272E-3,-2.144695446E-2,3.225789061E-2
1.048650133E1,2.556054108E-2,-5.318279378E-3,-2.699192241E-2,3.755248635E-2
1.049648033E1,2.568516508E-2,-3.642090131E-3,-2.816157788E-2,3.828925429E-2
1.050645933E1,2.002328634E-2,-3.434629645E-3,-2.464833669E-2,3.194165272E-2
1.051643833E1,1.268597879E-2,-1.045651268E-3,-1.941668615E-2,2.321713043E-2
1.052641733E1,6.818841211E-5,3.137908410E-3,-6.120320410E-3,6.878185863E-3
1.053639633E1,-1.039482933E-2,3.364346921E-3,6.178622134E-3,1.255175997E-2
1.054637533E1,-1.629932411E-2,3.118004650E-3,2.006727457E-2,2.604007350E-2
1.055635433E1,-1.990711689E-2,7.866036613E-4,3.148085251E-2,3.725528316E-2
1.056633333E1,-2.009487152E-2,-1.906651072E-3,3.644285351E-2,4.165958175E-2
1.057631233E1,-1.896174625E-2,-1.038989797E-2,3.907405585E-2,4.465735820E-2
1.058629133E1,-2.148083039E-2,-3.751170356E-3,3.441725299E-2,4.074364559E-2
1.059626933E1,-2.808062173E-2,-1.347985119E-3,2.762492560E-2,3.941414588E-2
1.060624833E1,-2.814826556E-2,6.140024867E-3,1.939868741E-2,3.473231683E-2
1.061622733E1,-2.170684375E-2,-1.692585647E-4,9.248841554E-3,2.359569419E-2
1.062620633E1,-1.132504083E-2,-7.483896799E-3,-1.220236882E-4,1.357498254E-2
1.063618533E1,-6.047240458E-3,-5.923500750E-3,-6.688371766E-3,1.078847974E-2
1.064616433E1,-1.141803805E-2,4.728344735E-3,-9.176029824E-3,1.539247739E-2
1.065614333E1,-2.385364287E-2,1.209279150E-2,1.305369427E-3,2.677565823E-2
1.066612233E1,-3.672336787E-2,1.447339170E-2,1.209756359E-2,4.128481391E-2
1.067610133E1,-4.059613496E-2,8.988746442E-3,1.377016027E-2,4.380024030E-2
1.068608033E1,-3.857079893E-2,1.228167675E-4,4.861088470E-3,3.887610829E-2
1.069605979E1,-3.516998142E-2,-7.194430102E-3,-8.320822380E-3,3.685001360E-2
1.070603879E1,-3.501205519E-2,-6.446614396E-3,-2.124860510E-2,4.145969205E-2
1.071601779E1,-3.399813920E-2,-4.478946794E-4,-2.898076735E-2,4.467615645E-2
1.072599679E1,-3.890900686E-2,1.513257273E-3,-2.533303574E-2,4.645388533E-2
1.073597479E1,-4.004567489E-2,-6.014360115E-4,-1.438171323E-2,4.255410060E-2
1.074595379E1,-3.630020469E-2,-5.014027935E-3,9.762045229E-4,3.665785471E-2
1.075593279E1,-2.704436705E-2,-1.338347048E-2,7.067316677E-3,3.099132194E-2
1.076591179E1,-1.499542873E-2,-1.044520549E-2,5.179401487E-3,1.899450975E-2
1.077589079E1,-1.866594655E-3,-6.448737811E-3,-1.164910849E-3,6.813766378E-3
1.078586979E1,1.333286427E-2,5.308750551E-4,-1.242981572E-2,1.823588267E-2
1.079584879E1,2.295006812E-2,6.857012864E-3,-1.935649849E-2,3.079607582E-2
1.080582779E1,2.514610998E-2,1.215750165E-2,-2.056557313E-2,3.468536423E-2
1.081580679E1,1.630552672E-2,1.385321934E-2,-1.597835310E-2,2.670373860E-2
1.082578579E1,4.713585600E-3,1.468732115E-2,-6.191235967E-3,1.662127235E-2
1.083576479E1,-4.361946601E-3,7.607303094E-3,1.326604281E-3,8.868907342E-3
1.084574379E1,-1.107018348E-2,-6.408197805E-6,1.247805823E-2,1.668085551E-2
1.085572279E1,-1.373410784E-2,-5.894643720E-3,8.884912357E-3,1.738718523E-2
1.086570179E1,-1.257030666E-2,-4.546817858E-3,4.641963169E-3,1.415040580E-2
1.087568079E1,-8.030211553E-3,1.853601425E-3,-2.510806080E-3,8.615351589E-3
1.088565879E1,-1.418914879E-3,5.609457381E-3,-9.333292954E-3,1.098133366E-2
1.089563779E1,6.894178689E-3,9.360264987E-3,-1.065768860E-2,1.577119484E-2
1.090561679E1,1.243275404E-2,5.607338622E-3,-7.943661883E-3,1.578345284E-2
1.091559579E1,1.338053774E-2,3.782262560E-3,-3.768151510E-4,1.390993494E-2
1.092557479E1,9.582336992E-3,5.813189317E-3,8.429192938E-3,1.402375292E-2
1.093555379E1,2.871210687E-3,8.443273604E-3,1.374518778E-2,1.638483772E-2
1.094553279E1,3.068288788E-5,1.566283777E-2,1.154887863E-2,1.946026788E-2
1.095551179E1,-1.519268146E-3,2.076046541E-2,4.969203845E-3,2.140088986E-2
1.096549079E1,3.500047605E-4,2.689665183E-2,-4.046129063E-3,2.720153568E-2
1.097546979E1,4.734576214E-3,2.326614596E-2,-1.366245933E-2,2.739329397E-2
1.098544879E1,8.400684223E-3,1.720771939E-2,-1.649659500E-2,2.527478483E-2
1.099542779E1,1.077067293E-2,1.724595018E-2,-1.576090418E-2,2.572617915E-2
1.100540679E1,1.166602783E-2,1.315320469E-2,-9.238823317E-3,1.986098828E-2
1.101538579E1,1.385937165E-2,1.066074055E-2,-7.056089118E-3,1.885529011E-2
1.102536479E1,1.935826614E-2,8.992269635E-3,-2.099946607E-3,2.144791731E-2
1.103534279E1,3.029939160E-2,4.877973348E-3,-5.693363491E-3,3.121317259E-2
1.104532179E1,3.783666715E-2,2.805234864E-3,-1.296672225E-2,4.009511952E-2
1.105530079E1,3.852980956E-2,6.489026360E-3,-1.756931655E-2,4.284080499E-2
1.106527979E1,3.194514662E-2,1.424601488E-2,-2.053234912E-2,4.055883003E-2
1.107525879E1,2.183690667E-2,1.196436957E-2,-1.369748730E-2,2.841861697E-2
1.108523779E1,1.379016601E-2,3.086455865E-3,-1.361192553E-3,1.419675081E-2
1.109521679E1,5.873341113E-3,-3.885781392E-3,9.429744445E-3,1.176926137E-2
1.110519579E1,3.560699988E-4,-4.505232442E-3,1.657021232E-2,1.717544298E-2
1.111517479E1,-7.344824262E-4,5.988425575E-3,1.925627328E-2,2.017931530E-2
1.112515379E1,-2.688053064E-5,1.482585911E-2,1.587832160E-2,2.172390199E-2
1.113513279E1,5.974124651E-4,1.768850721E-2,1.060418598E-2,2.063223084E-2
1.114511179E1,7.319021970E-4,1.744269766E-2,3.385954536E-3,1.778336500E-2
1.115509079E1,-1.770711970E-3,1.464969292E-2,-2.890650067E-4,1.475914910E-2
1.116506979E1,-1.051733270E-2,1.409255899E-2,-2.001743997E-3,1.769806445E-2
1.117504779E1,-2.324137092E-2,1.290612482E-2,4.859888460E-3,2.702494950E-2
1.118502679E1,-3.525568917E-2,1.025734469E-2,1.610588469E-2,4.009459142E-2
1.119500579E1,-4.116872698E-2,6.787504535E-3,2.612922713E-2,4.923079127E-2
1.120498479E1,-4.178844765E-2,-2.070218325E-4,2.589540184E-2,4.916186582E-2
1.121496379E1,-2.937671542E-2,-8.708569221E-4,2.168779261E-2,3.652547261E-2
1.122494279E1,-1.560471207E-2,7.414207794E-4,1.235687546E-2,1.991856207E-2
1.123492179E1,2.285046503E-4,3.206749447E-3,5.206237081E-3,6.118852910E-3
1.124490079E1,1.563302614E-2,-4.513754509E-3,1.397650456E-3,1.633153124E-2
1.125487979E1,2.509819716E-2,-9.880680591E-3,-4.347420763E-4,2.697658893E-2
1.126485879E1,2.841117047E-2,-9.289192036E-3,1.101102913E-3,2.991147144E-2
1.127483779E1,2.902925946E-2,-1.354979351E-3,-2.458340488E-3,2.916465861E-2
1.128481679E1,2.897493169E-2,5.276557989E-3,-2.417327836E-3,2.955050261E-2
1.129479579E1,2.796084993E-2,6.981730927E-3,-6.627461873E-3,2.957155637E-2
1.130477479E1,2.431578189E-2,6.430722773E-3,-5.399744492E-3,2.572486511E-2
1.131475379E1,1.522986963E-2,8.603193797E-3,-1.697816071E-3,1.757402777E-2
1.132473179E1,7.800449617E-3,1.034623291E-2,-4.053839948E-4,1.296363706E-2
1.133471079E1,3.916461952E-3,8.847595192E-3,3.963005147E-4,9.683783817E-3
1.134468979E1,1.850914443E-3,-8.023690898E-4,-2.498022979E-3,3.210887609E-3
1.135466879E1,2.828813158E-4,-6.821634248E-3,-1.409103628E-2,1.565796983E-2
1.136464779E1,-9.421944618E-3,-4.349154886E-3,-1.849031262E-2,2.120329808E-2
1.137462679E1,-2.222904935E-2,-1.148022246E-3,-1.694782078E-2,2.797636895E-2
1.138460579E1,-3.600132093E-2,5.181779154E-3,-1.301885862E-2,3.863206730E-2
1.139458479E1,-4.531766102E-2,1.011173241E-2,-3.860430093E-3,4.659227890E-2
1.140456379E1,-4.651954398E-2,1.182015054E-2,3.680310445E-3,4.813863953E-2
1.141454279E1,-4.131652042E-2,1.069935970E-2,1.037802640E-2,4.392305306E-2
1.142452179E1,-3.613827005E-2,1.187407970E-2,1.135620568E-2,3.969800673E-2
1.143450079E1,-3.128947690E-2,8.605308831E-3,1.057936437E-2,3.413217918E-2
1.144447979E1,-2.767210640E-2,6.036956329E-3,5.995532032E-3,2.895059099E-2
1.145445879E1,-2.472235449E-2,6.783783901E-3,1.124538714E-3,2.566084805E-2
1.146443779E1,-2.196518518E-2,1.103232428E-2,-5.439316155E-4,2.458612212E-2
1.147441579E1,-1.833555289E-2,1.111388765E-2,1.047238591E-3,2.146643210E-2
1.148439479E1,-1.259963680E-2,8.028348908E-3,6.589276716E-3,1.632861909E-2
1.149437379E1,-6.862970069E-3,5.014168099E-3,1.103916019E-2,1.393216773E-2
1.150435279E1,-1.022814028E-2,8.463207632E-4,2.002786100E-2,2.250436244E-2
1.151433179E1,-1.521755755E-2,1.418571686E-3,2.852367610E-2,3.236026115E-2
1.152431079E1,-2.101659030E-2,2.497418318E-3,3.209630772E-2,3.844615892E-2
1.153428979E1,-1.956781186E-2,7.437721360E-3,2.014070749E-2,2.904938998E-2
1.154426879E1,-2.435164526E-3,8.578885347E-3,9.185443632E-4,8.964988779E-3
1.155424779E1,1.523514464E-2,5.264705047E-3,-1.568905637E-2,2.249384897E-2
1.156422679E1,2.716770396E-2,1.375938952E-2,-3.193993494E-2,4.413121777E-2
1.157420579E1,3.139156848E-2,3.818180785E-2,-4.413709790E-2,6.626737080E-2
1.158418479E1,3.263952583E-2,5.946791917E-2,-5.166105926E-2,8.526803094E-2
1.159416379E1,3.327437863E-2,8.203386515E-2,-5.146736652E-2,1.023993609E-1
1.160414279E1,3.336572647E-2,8.829655498E-2,-3.879737854E-2,1.020528780E-1
1.161412179E1,3.589116782E-2,6.547818333E-2,-1.312170550E-2,7.581390093E-2
1.162409979E1,2.248242125E-2,1.611143164E-2,2.032946236E-2,3.432673207E-2
1.163407879E1,-6.008546799E-3,-1.264169812E-2,6.015016511E-2,6.175724677E-2
1.164405779E1,-4.070687294E-2,-2.540756017E-2,9.539949894E-2,1.067879114E-1
1.165403679E1,-6.163538992E-2,-3.552240133E-2,1.084222347E-1,1.296770730E-1
1.166401579E1,-6.031019986E-2,-4.215287417E-2,9.994059801E-2,1.241060359E-1
1.167399479E1,-3.938677907E-2,-4.498453438E-2,7.514224201E-2,9.602751290E-2
1.168397379E1,-9.992668405E-3,-4.495657235E-2,3.848142922E-2,6.001472498E-2
1.169395267E1,1.891890354E-2,-3.614802286E-2,-5.167107447E-4,4.080283640E-2
1.170393167E1,4.152194783E-2,-3.435784578E-2,-2.725857683E-2,6.039506378E-2
1.171391067E1,5.554186180E-2,-4.756687209E-2,-3.922707960E-2,8.298354962E-2
1.172388967E1,6.184023619E-2,-6.327233464E-2,-4.337228835E-2,9.853303273E-2
1.173386867E1,5.869294703E-2,-8.222943544E-2,-4.456519336E-2,1.104201003E-1
1.174384767E1,4.511428624E-2,-9.127911925E-2,-5.372966081E-2,1.151262476E-1
1.175382667E1,2.421213128E-2,-8.899767697E-2,-6.970801204E-2,1.156115079E-1
1.176380467E1,1.808288507E-3,-7.767125219E-2,-8.553784341E-2,1.155543854E-1
1.177378367E1,-9.425151162E-3,-7.451280206E-2,-9.854892641E-2,1.239067474E-1
1.178376267E1,-1.429154631E-2,-8.217764646E-2,-1.109328941E-1,1.387930865E-1
1.179374167E1,-2.466218732E-2,-8.927784115E-2,-1.140682921E-1,1.469364885E-1
1.180372067E1,-4.649771377E-2,-9.581404179E-2,-9.889253974E-2,1.453344502E-1
1.181369967E1,-8.828427643E-2,-8.725868911E-2,-6.219437718E-2,1.388392338E-1
1.182367867E1,-1.300562322E-1,-8.547117561E-2,-6.773466244E-3,1.557749185E-1
1.183365767E1,-1.578061283E-1,-8.551213145E-2,4.758771509E-2,1.856870738E-1
1.184363667E1,-1.613087207E-1,-8.577045798E-2,9.015514702E-2,2.037278218E-1
1.185361567E1,-1.466985494E-1,-7.304977626E-2,1.145935655E-1,1.999710465E-1
1.186359467E1,-1.179712936E-1,-5.414026976E-2,1.182817817E-1,1.756102924E-1
1.187357367E1,-8.526929468E-2,-4.006480426E-2,9.507060051E-2,1.338449111E-1
1.188355267E1,-5.462722853E-2,-2.507466823E-2,4.269713908E-2,7.372868349E-2
1.189353167E1,-3.196750581E-2,-9.127078578E-3,-3.321445733E-2,4.699388436E-2
1.190351067E1,-2.360970713E-2,3.622272285E-3,-1.112197787E-1,1.137557836E-1
1.191348867E1,-3.842915222E-2,1.012297533E-2,-1.825127900E-1,1.867891669E-1
1.192346767E1,-7.082837820E-2,1.040686853E-2,-2.386016250E-1,2.491098101E-1
1.193344667E1,-1.106779873E-1,1.150407945E-3,-2.738955617E-1,2.954144868E-1
1.194342567E1,-1.434122324E-1,-1.442455687E-2,-2.842153311E-1,3.186745843E-1
1.195340467E1,-1.680501997E-1,-2.175184712E-2,-2.636678517E-1,3.134242309E-1
1.196338367E1,-1.812741309E-1,-3.971327096E-2,-2.157109678E-1,2.845499535E-1
1.197336267E1,-1.718236208E-1,-4.764735326E-2,-1.554095596E-1,2.365285567E-1
1.198334167E1,-1.360664219E-1,-7.073669136E-2,-1.038803086E-1,1.852265347E-1
1.199332067E1,-7.690189779E-2,-1.031632125E-1,-6.266190857E-2,1.431190591E-1
1.200329967E1,-1.033485867E-2,-1.441343427E-1,-3.770142794E-2,1.493416074E-1
1.201327867E1,4.846664146E-2,-1.616902351E-1,-1.721605286E-2,1.696736277E-1
1.202325767E1,8.694825321E-2,-1.412712634E-1,-6.893906742E-3,1.660273909E-1
1.203323667E1,1.055166870E-1,-1.226609945E-1,-3.505127272E-3,1.618387368E-1
1.204321567E1,1.103327498E-1,-1.049075574E-1,-3.899275092E-3,1.522961444E-1
1.205319467E1,1.110778153E-1,-1.132234484E-1,-9.962684708E-4,1.586153299E-1
1.206317367E1,1.017857790E-1,-1.182299256E-1,3.581172787E-3,1.560496233E-1
1.207315167E1,8.116012812E-2,-1.144745350E-1,1.592778787E-2,1.412270512E-1
1.208313067E1,4.483407736E-2,-8.846690506E-2,2.924146317E-2,1.033999562E-1
1.209310967E1,2.922595013E-3,-3.747062758E-2,3.747149184E-2,5.307261246E-2
1.210308867E1,-3.567939252E-2,2.173916623E-2,2.982209623E-2,5.133193764E-2
1.211306767E1,-7.322166860E-2,7.969529182E-2,8.082300425E-3,1.085268440E-1
1.212304667E1,-1.139504537E-1,1.110436246E-1,-1.697351784E-2,1.600109145E-1
1.213302567E1,-1.533109695E-1,1.056425199E-1,-3.942614794E-2,1.903129436E-1
1.214300467E1,-1.867541373E-1,5.885424092E-2,-5.798785016E-2,2.042143977E-1
1.215298367E1,-2.060878873E-1,7.507496048E-3,-7.050690055E-2,2.179444948E-1
1.216296267E1,-2.175714374E-1,-3.132565320E-2,-6.981927156E-2,2.306368522E-1
1.217294167E1,-2.157223970E-1,-4.863799363E-2,-6.164690107E-2,2.295694827E-1
1.218292067E1,-2.031413615E-1,-5.493370816E-2,-4.407349974E-2,2.150037172E-1
1.219289967E1,-1.834486127E-1,-4.484871402E-2,-1.398337632E-2,1.893682536E-1
1.220287867E1,-1.509378105E-1,-2.139531821E-2,1.391004026E-2,1.530799514E-1
1.221285667E1,-1.050230712E-1,4.513169173E-3,3.713207692E-2,1.114854489E-1
1.222283567E1,-4.950894043E-2,2.807122469E-2,4.673916474E-2,7.364562688E-2
1.223281467E1,9.113634005E-3,4.174482822E-2,4.770948365E-2,6.404595099E-2
1.224279367E1,7.055435330E-2,5.385768414E-2,3.256728500E-2,9.454731600E-2
1.225277267E1,1.219672114E-1,7.328570634E-2,1.227266528E-2,1.428195145E-1
1.226275167E1,1.581363976E-1,9.496703744E-2,-1.219885610E-2,1.848639244E-1
1.227273067E1,1.838947386E-1,1.054932997E-1,-3.024136834E-2,2.141510016E-1
1.228270967E1,1.981066912E-1,1.020804569E-1,-3.594506159E-2,2.257404001E-1
1.229268867E1,1.942826957E-1,8.863710612E-2,-2.632572688E-2,2.151635339E-1
1.230266767E1,1.729726195E-1,7.119978964E-2,9.977723239E-4,1.870559614E-1
1.231264667E1,1.423518509E-1,5.630126595E-2,3.884688765E-2,1.579334122E-1
1.232262567E1,1.084111854E-1,4.859354347E-2,8.004279435E-2,1.432521083E-1
1.233260467E1,8.308159560E-2,4.521552473E-2,1.131669879E-1,1.474915671E-1
1.234258367E1,6.975007802E-2,5.081056058E-2,1.313207000E-1,1.571366053E-1
1.235256267E1,8.007041365E-2,3.904912993E-2,1.323155016E-1,1.595101804E-1
1.236254067E1,1.067142785E-1,7.857654244E-3,9.844888747E-2,1.454024188E-1
1.237251967E1,1.339346766E-1,-3.196141124E-2,3.750910982E-2,1.427128682E-1
1.238249867E1,1.467966735E-1,-7.861626893E-2,-4.094335437E-2,1.714821838E-1
1.239247767E1,1.296121329E-1,-1.221394315E-1,-1.146735772E-1,2.118192037E-1
1.240245667E1,8.514852822E-2,-1.616988331E-1,-1.624003500E-1,2.444803840E-1
1.241243567E1,1.609217748E-2,-2.007777393E-1,-1.740812957E-1,2.662235081E-1
1.242241467E1,-5.932375044E-2,-2.347495556E-1,-1.555028111E-1,2.877634193E-1
1.243239367E1,-1.177537218E-1,-2.460906059E-1,-1.162979081E-1,2.965665671E-1
1.244237267E1,-1.442055702E-1,-2.210273296E-1,-5.563216284E-2,2.697095928E-1
1.245235167E1,-1.419735998E-1,-1.475619078E-1,2.874824218E-2,2.067788217E-1
1.246233067E1,-1.128365025E-1,-4.680923652E-3,1.250412315E-1,1.684912369E-1
1.247230967E1,-5.560697243E-2,1.806506068E-1,2.255808711E-1,2.943017270E-1
1.248228867E1,1.563818008E-2,3.330902159E-1,3.045600951E-1,4.516087866E-1
1.249226767E1,8.111962676E-2,4.458640814E-1,3.500325978E-1,5.726237791E-1
1.250224667E1,1.219011471E-1,5.126082301E-1,3.420734704E-1,6.282048602E-1
1.251222467E1,1.490850896E-1,5.077632666E-1,2.739504576E-1,5.959016295E-1
1.252220367E1,1.623036861E-1,4.148146510E-1,1.777440608E-1,4.795900670E-1
1.253218267E1,1.617447138E-1,2.605678439E-1,8.746182919E-2,3.189146050E-1
1.254216167E1,1.266373247E-1,1.184823513E-1,1.604516804E-2,1.741623581E-1
1.255214067E1,6.115205213E-2,5.114977807E-2,-1.951508969E-2,8.207747561E-2
1.256211967E1,-2.433514968E-2,3.389968351E-2,-5.318310577E-3,4.206747531E-2
1.257209867E1,-1.110540479E-1,4.577112943E-2,5.932100117E-2,1.339663354E-1
1.258207767E1,-1.729981005E-1,7.147729397E-2,1.662258804E-1,2.503365528E-1
1.259205667E1,-1.884766519E-1,9.882409871E-2,2.929314673E-1,3.620752620E-1
1.260203567E1,-1.381215900E-1,1.304813623E-1,4.018885791E-1,4.445417748E-1
1.261201467E1,-2.782171406E-2,1.649139673E-1,4.498483241E-1,4.799314316E-1
1.262199367E1,1.249449328E-1,1.875077039E-1,4.230747819E-1,4.793356301E-1
1.263197267E1,2.766768932E-1,1.838071644E-1,3.446761668E-1,4.786823967E-1
1.264195167E1,3.867293596E-1,1.457601786E-1,2.462971359E-1,4.811111165E-1
1.265193067E1,4.291273952E-1,8.655437082E-2,1.734045744E-1,4.708621102E-1
1.266190967E1,3.992246091E-1,2.346142009E-2,1.493567526E-1,4.268936241E-1
1.267188767E1,3.108340502E-1,-3.189085051E-2,1.752296984E-1,3.582461169E-1
1.268186667E1,1.941987723E-1,-7.485190779E-2,2.369322032E-1,3.153614437E-1
1.269184504E1,8.222703636E-2,-9.233886003E-2,3.068536222E-1,3.308275926E-1
1.270182404E1,2.560171066E-3,-6.609580666E-2,3.642162681E-1,3.701738781E-1
1.271180304E1,-3.237356991E-2,-1.204181835E-2,3.829805255E-1,3.845349611E-1
1.272178204E1,-2.912131697E-2,3.861283511E-2,3.617239892E-1,3.649427990E-1
1.273176104E1,4.317308776E-5,5.407926068E-2,3.084848821E-1,3.131892252E-1
1.274174004E1,2.965539321E-2,3.822732717E-2,2.265785635E-1,2.316864612E-1
1.275171904E1,4.510921612E-2,-3.946947865E-3,1.471425295E-1,1.539524075E-1
1.276169804E1,3.572503477E-2,-7.085727155E-2,8.653297275E-2,1.174094818E-1
1.277167704E1,-1.083663572E-2,-1.260913759E-1,5.144437030E-2,1.366125580E-1
1.278165604E1,-9.285453707E-2,-1.525592059E-1,4.409670830E-2,1.839586802E-1
1.279163504E1,-1.955077052E-1,-1.641280502E-1,6.144940481E-2,2.625591534E-1
1.280161404E1,-3.022357523E-1,-1.619647592E-1,9.444943070E-2,3.556680028E-1
1.281159304E1,-3.852453828E-1,-1.522206515E-1,1.298962384E-1,4.341176850E-1
1.282157104E1,-4.403459430E-1,-1.584218144E-1,1.506491750E-1,4.916270891E-1
1.283155004E1,-4.666055143E-1,-1.725754589E-1,1.387986541E-1,5.164959451E-1
1.284152904E1,-4.639532864E-1,-1.876934320E-1,1.040843502E-1,5.111898163E-1
1.285150804E1,-4.371512234E-1,-1.986877024E-1,6.001881883E-2,4.839217435E-1
1.286148704E1,-3.914279640E-1,-2.058582604E-1,1.237220503E-2,4.424325325E-1
1.287146604E1,-3.314343691E-1,-1.852708757E-1,-3.035109490E-2,3.809136744E-1
1.288144504E1,-2.679954767E-1,-1.510431319E-1,-6.327282637E-2,3.140685495E-1
1.289142404E1,-2.074734718E-1,-1.071033552E-1,-7.494999468E-2,2.452220869E-1
1.290140304E1,-1.567234844E-1,-6.974479556E-2,-6.573359668E-2,1.837049069E-1
1.291138204E1,-1.285773516E-1,-4.406214505E-2,-4.888183996E-2,1.444404453E-1
1.292136104E1,-1.084907427E-1,-4.468266666E-2,-1.901342347E-2,1.188624930E-1
1.293134004E1,-1.015374959E-1,-8.431769162E-2,1.487058238E-3,1.319907100E-1
1.294131904E1,-1.073810011E-1,-1.538909078E-1,1.960108057E-2,1.886724496E-1
1.295129804E1,-1.248055398E-1,-2.199602723E-1,2.972169407E-2,2.546415584E-1
1.296127704E1,-1.452383697E-1,-2.745041847E-1,3.247114271E-2,3.122516719E-1
1.297125504E1,-1.622149497E-1,-2.965774834E-1,3.524209186E-2,3.398733567E-1
1.298123404E1,-1.678339541E-1,-2.704566717E-1,4.385475442E-2,3.213071535E-1
1.299121304E1,-1.533964574E-1,-2.045843899E-1,6.020357460E-2,2.626970045E-1
1.300119204E1,-1.169116870E-1,-1.186516359E-1,8.351741731E-2,1.863376297E-1
1.301117104E1,-6.239083782E-2,-2.836252935E-2,1.045966446E-1,1.250500211E-1
1.302115004E1,-7.378723472E-3,5.494754016E-2,1.107807755E-1,1.238792071E-1
1.303112904E1,3.074361198E-2,1.252995878E-1,1.054681763E-1,1.666394089E-1
1.304110804E1,3.566513211E-2,1.854534745E-1,9.487438947E-2,2.113436600E-1
1.305108704E1,3.853372531E-3,2.220927030E-1,8.146378398E-2,2.365932486E-1
1.306106604E1,-6.367746741E-2,2.253375053E-1,6.961351633E-2,2.442905091E-1
1.307104504E1,-1.567741781E-1,2.251753509E-1,6.744750589E-2,2.825442401E-1
1.308102404E1,-2.475685328E-1,2.303256392E-1,6.624802202E-2,3.445705718E-1
1.309100304E1,-3.101679981E-1,2.165220827E-1,6.036017090E-2,3.830526720E-1
1.310098204E1,-3.324216306E-1,1.642285287E-1,3.503191099E-2,3.724276909E-1
1.311096104E1,-3.216179907E-1,7.671186328E-2,-9.354329668E-3,3.307723468E-1
1.312093904E1,-2.930473089E-1,-3.503883723E-3,-5.310021341E-2,2.978399489E-1
1.313091804E1,-2.514169514E-1,-4.693055898E-2,-9.354685247E-2,2.723306344E-1
1.314089704E1,-1.893037856E-1,-5.529794469E-2,-1.045515686E-1,2.232147316E-1
1.315087604E1,-1.109389961E-1,-1.413767785E-2,-7.929021120E-2,1.370922039E-1
1.316085504E1,-1.880987361E-2,5.205332488E-2,-1.790434495E-2,5.817151832E-2
1.317083404E1,7.626876980E-2,1.112808511E-1,6.336665154E-2,1.490492723E-1
1.318081304E1,1.612265408E-1,1.385612190E-1,1.420500129E-1,2.556783429E-1
1.319079204E1,2.073639333E-1,1.224977523E-1,2.072482705E-1,3.177378570E-1
1.320077104E1,2.063103765E-1,8.437407017E-2,2.438289225E-1,3.303566234E-1
1.321075004E1,1.717864722E-1,3.714762628E-2,2.498376071E-1,3.054658215E-1
1.322072904E1,1.150960252E-1,-1.358425990E-2,2.140907943E-1,2.434471099E-1
1.323070804E1,4.302346334E-2,-5.077589303E-2,1.479629576E-1,1.622413219E-1
1.324068704E1,-3.892626613E-2,-7.147558033E-2,7.872637361E-2,1.132336288E-1
1.325066604E1,-1.125659272E-1,-7.713142037E-2,2.684168518E-2,1.390712768E-1
1.326064504E1,-1.678728461E-1,-6.795922667E-2,1.222332846E-2,1.815190313E-1
1.327062304E1,-2.027184516E-1,-2.266724408E-2,2.494431473E-2,2.055013222E-1
1.328060204E1,-2.248786092E-1,3.227163851E-2,6.394498050E-2,2.360101863E-1
1.329058104E1,-2.345474511E-1,7.789672166E-2,1.304363161E-1,2.794531063E-1
1.330056004E1,-2.252122760E-1,8.816773444E-2,1.891480982E-1,3.070360267E-1
1.331053904E1,-1.940996647E-1,8.298961073E-2,2.211586386E-1,3.057337056E-1
1.332051804E1,-1.390976608E-1,7.511837035E-2,2.061858028E-1,2.598143839E-1
1.333049704E1,-6.008110568E-2,7.320636511E-2,1.498049498E-1,1.772298906E-1
1.334047604E1,3.383207694E-2,7.319225371E-2,6.498433650E-2,1.035600281E-1
1.335045504E1,1.284256577E-1,7.840258628E-2,-3.688037023E-2,1.549202273E-1
1.336043404E1,2.156391293E-1,8.445861191E-2,-1.394101977E-1,2.703122166E-1
1.337041304E1,2.763786316E-1,8.449429274E-2,-2.209087908E-1,3.637652091E-1
1.338039204E1,3.054435551E-1,7.492689043E-2,-2.726044655E-1,4.162006714E-1
1.339037104E1,2.964482605E-1,5.657365918E-2,-2.878321111E-1,4.170485275E-1
1.340035004E1,2.592249811E-1,5.521065369E-2,-2.619344592E-1,3.726331547E-1
1.341032904E1,1.972920746E-1,7.151091844E-2,-2.137409747E-1,2.995382753E-1
1.342030804E1,1.367206126E-1,1.020515114E-1,-1.331976503E-1,2.164454919E-1
1.343028604E1,9.005487710E-2,1.124262139E-1,-3.775722906E-2,1.489132056E-1
1.344026504E1,5.790786073E-2,8.735255152E-2,4.499437660E-2,1.140538580E-1
1.345024404E1,2.302468941E-2,6.693335623E-2,1.128753647E-1,1.332330982E-1
1.346022304E1,-2.332816273E-2,3.823113069E-2,1.545708776E-1,1.609284895E-1
1.347020204E1,-7.497163862E-2,1.354443096E-2,1.694688797E-1,1.858060801E-1
1.348018104E1,-1.268710494E-1,-7.586420048E-3,1.545059085E-1,2.000647213E-1
1.349016004E1,-1.669055969E-1,-2.522135526E-2,1.203394160E-1,2.073045346E-1
1.350013904E1,-1.958024949E-1,-3.229790926E-2,6.662958115E-2,2.093353124E-1
1.351011804E1,-2.214284539E-1,-2.004116029E-2,2.404178493E-3,2.223465502E-1
1.352009704E1,-2.457329929E-1,1.827920321E-3,-6.525929272E-2,2.542573900E-1
1.353007604E1,-2.709470391E-1,1.297776029E-2,-1.207528934E-1,2.969208338E-1
1.354005504E1,-2.917678952E-1,1.560017467E-2,-1.627986282E-1,3.344775979E-1
1.355003404E1,-3.146636784E-1,-7.500756066E-3,-1.916493028E-1,3.685090869E-1
1.356001304E1,-3.265536129E-1,-5.338941514E-2,-1.961095631E-1,3.846383399E-1
1.356999204E1,-3.180559874E-1,-1.071287468E-1,-1.763463169E-1,3.791229391E-1
1.357997004E1,-2.948026061E-1,-1.483438313E-1,-1.565185487E-1,3.652567932E-1
1.358994904E1,-2.560098767E-1,-1.628931910E-1,-1.422578692E-1,3.351306462E-1
1.359992804E1,-2.121185958E-1,-1.427351981E-1,-1.307380944E-1,2.871586405E-1
1.360990704E1,-1.696033627E-1,-9.834083915E-2,-1.250548959E-1,2.325402078E-1
1.361988604E1,-1.173881069E-1,-4.999647290E-2,-1.297151595E-1,1.819495467E-1
1.362986504E1,-6.638697535E-2,-1.527118497E-2,-1.502364874E-1,1.649589092E-1
1.363984404E1,-2.379664034E-2,5.784032866E-3,-1.734019965E-1,1.751227784E-1
1.364982304E1,5.632364191E-3,1.397838350E-2,-1.888843477E-1,1.894846050E-1
1.365980204E1,1.780061424E-2,1.934598386E-2,-1.970538646E-1,1.987997850E-1
1.366978104E1,9.894793853E-3,2.050913498E-2,-1.939442307E-1,1.952764609E-1
1.367976004E1,-3.840724938E-3,2.185749263E-2,-1.818074137E-1,1.831568640E-1
1.368973942E1,-9.939671494E-3,3.274195269E-2,-1.715900600E-1,1.749685150E-1
1.369971842E1,2.843768103E-3,5.863293633E-2,-1.749192774E-1,1.845065361E-1
1.370969742E1,2.831528708E-2,1.018356606E-1,-1.865368932E-1,2.144021217E-1
1.371967642E1,6.806056947E-2,1.422978640E-1,-2.014609873E-1,2.558660834E-1
1.372965442E1,1.072892398E-1,1.603529155E-1,-2.209970206E-1,2.933661903E-1
1.373963342E1,1.365685761E-1,1.449350864E-1,-2.433129698E-1,3.144174876E-1
1.374961242E1,1.412884891E-1,9.650889039E-2,-2.469744980E-1,3.004543322E-1
1.375959142E1,1.264466941E-1,3.739949316E-2,-2.314381450E-1,2.663664835E-1
1.376957042E1,1.021303535E-1,-2.425763570E-2,-2.006438673E-1,2.264442612E-1
1.377954942E1,7.023979723E-2,-7.732671499E-2,-1.592471600E-1,1.904539522E-1
1.378952842E1,3.033240326E-2,-1.063252464E-1,-1.057754830E-1,1.530149192E-1
1.379950742E1,-2.084556408E-2,-1.027877703E-1,-4.061805084E-2,1.124708377E-1
1.380948642E1,-6.550121307E-2,-6.413666159E-2,3.084854782E-2,9.672410856E-2
1.381946542E1,-9.005555511E-2,-3.170602024E-2,9.706644714E-2,1.361512757E-1
1.382944442E1,-8.706722409E-2,-2.504412085E-2,1.547119021E-1,1.792865923E-1
1.383942342E1,-6.479068100E-2,-3.507864475E-2,2.155222595E-1,2.277678379E-1
1.384940242E1,-2.025117539E-2,-5.547899380E-2,2.624218464E-1,2.689856024E-1
1.385938142E1,4.238184169E-2,-7.786152512E-2,2.803076506E-1,2.939915246E-1
1.386936042E1,1.078748405E-1,-8.876204491E-2,2.733841538E-1,3.070090836E-1
1.387933942E1,1.620105207E-1,-9.120895714E-2,2.519116104E-1,3.130909486E-1
1.388931742E1,1.891380101E-1,-8.391468972E-2,2.094769478E-1,2.944409171E-1
1.389929642E1,1.891963333E-1,-6.156464666E-2,1.602103263E-1,2.554462897E-1
1.390927542E1,1.580935568E-1,-3.024879470E-2,1.165001243E-1,1.986978642E-1
1.391925442E1,1.050361991E-1,1.763467677E-3,7.946807146E-2,1.317227669E-1
1.392923342E1,4.266948998E-2,7.190191187E-3,4.705314338E-2,6.392481933E-2
1.393921242E1,-1.584814489E-2,-3.383580595E-2,1.500120014E-2,4.026240761E-2
1.394919142E1,-6.247450039E-2,-1.070972979E-1,-5.272047594E-3,1.240995121E-1
1.395917042E1,-8.748743683E-2,-1.802604645E-1,-2.713393793E-2,2.021982623E-1
1.396914942E1,-7.846274972E-2,-2.135279328E-1,-7.672514021E-2,2.400777547E-1
1.397912842E1,-3.530542925E-2,-2.344739586E-1,-1.462698579E-1,2.786025519E-1
1.398910742E1,3.667289019E-2,-2.609835863E-1,-2.129333168E-1,3.388184331E-1
1.399908642E1,1.085225865E-1,-2.857019603E-1,-2.516332865E-1,3.958813873E-1
1.400906542E1,1.532838643E-1,-2.859772444E-1,-2.466788739E-1,4.075897376E-1
1.401904442E1,1.597140729E-1,-2.440590858E-1,-1.851747632E-1,3.454896748E-1
1.402902342E1,1.459391266E-1,-1.755556017E-1,-9.043500572E-2,2.455534325E-1
1.403900142E1,1.403502077E-1,-1.150059626E-1,4.673400894E-3,1.815114126E-1
1.404898042E1,1.549757570E-1,-7.032138854E-2,7.554844022E-2,1.861992206E-1
1.405895942E1,1.812995076E-1,-5.347982794E-2,1.076882705E-1,2.175462412E-1
1.406893842E1,2.061319351E-1,-4.743802920E-2,1.081272811E-1,2.375547310E-1
1.407891742E1,2.207473665E-1,-3.889913857E-2,8.407467604E-2,2.393973558E-1
1.408889642E1,2.163701952E-1,-5.081658438E-2,4.402505979E-2,2.265757985E-1
1.409887542E1,1.772646010E-1,-8.406055719E-2,-6.065271795E-3,1.962796565E-1
1.410885442E1,1.122152880E-1,-1.117474437E-1,-5.752726272E-2,1.684907949E-1
1.411883342E1,3.057261929E-2,-1.259018928E-1,-9.210388362E-2,1.589625649E-1
1.412881242E1,-5.662300065E-2,-1.197646931E-1,-9.465778619E-2,1.628184338E-1
1.413879142E1,-1.309353113E-1,-9.140202403E-2,-6.564877182E-2,1.726503605E-1
1.414877042E1,-1.774919033E-1,-5.973671004E-2,-1.617556252E-2,1.879720700E-1
1.415874942E1,-1.941076368E-1,-3.148909286E-2,3.860859200E-2,2.003995035E-1
1.416872842E1,-1.802693307E-1,-2.690944355E-3,8.502183110E-2,1.993313436E-1
1.417870742E1,-1.509551108E-1,3.216291219E-2,1.125232354E-1,1.910062221E-1
1.418868642E1,-1.093709022E-1,5.368505791E-2,1.257697344E-1,1.751059844E-1
1.419866442E1,-7.061631233E-2,6.930183619E-2,1.254658550E-1,1.597845075E-1
1.420864342E1,-4.587315395E-2,8.717470616E-2,1.296596676E-1,1.628355153E-1
1.421862242E1,-3.624716029E-2,1.005749330E-1,1.393674314E-1,1.756486684E-1
1.422860142E1,-4.613871872E-2,1.150372103E-1,1.547746211E-1,1.982864707E-1
1.423858042E1,-7.282146066E-2,1.343256980E-1,1.683777869E-1,2.273707048E-1
1.424855942E1,-9.980083257E-2,1.551621556E-1,1.754118502E-1,2.545679043E-1
1.425853842E1,-1.280042380E-1,1.755438596E-1,1.684340984E-1,2.749013952E-1
1.426851742E1,-1.470018923E-1,1.982404441E-1,1.557366103E-1,2.918265269E-1
1.427849642E1,-1.559138894E-1,1.925439388E-1,1.416918933E-1,2.854100592E-1
1.428847542E1,-1.492072493E-1,1.693118513E-1,1.290200353E-1,2.599528336E-1
1.429845442E1,-1.310673952E-1,1.332276165E-1,1.066854447E-1,2.151976859E-1
1.430843342E1,-9.462498873E-2,8.644266427E-2,7.649865746E-2,1.492590610E-1
1.431841242E1,-4.863992706E-2,5.938841030E-2,4.095610231E-2,8.700705775E-2
1.432839142E1,6.958357990E-3,5.154746771E-2,-4.392934963E-3,5.220017290E-2
1.433837042E1,6.149430200E-2,9.365017712E-2,-5.385928601E-2,1.243090003E-1
1.434834842E1,1.140651330E-1,1.719376147E-1,-9.102271497E-2,2.255183641E-1
1.435832742E1,1.591945291E-1,2.628243864E-1,-1.066485494E-1,3.252590802E-1
1.436830642E1,2.004723996E-1,3.457653821E-1,-1.063436642E-1,4.135841599E-1
1.437828542E1,2.393548191E-1,4.004722834E-1,-1.029539928E-1,4.777743231E-1
1.438826442E1,2.692344487E-1,4.141054153E-1,-1.069496721E-1,5.053797738E-1
1.439824342E1,2.894686162E-1,3.709496856E-1,-1.238809898E-1,4.865616597E-1
1.440822242E1,2.993992567E-1,2.991161048E-1,-1.578729004E-1,4.517014631E-1
1.441820142E1,3.009473383E-1,2.076133490E-1,-1.991122067E-1,4.163151138E-1
1.442818042E1,2.938463390E-1,1.172549799E-1,-2.387427241E-1,3.963489492E-1
1.443815942E1,2.714310288E-1,4.661969095E-2,-2.617655098E-1,3.799597099E-1
1.444813842E1,2.330692559E-1,2.904496621E-3,-2.669147849E-1,3.543631140E-1
1.445811742E1,1.894067377E-1,-1.285129599E-2,-2.468164265E-1,3.113814646E-1
1.446809642E1,1.437263191E-1,-2.013484761E-2,-1.998182237E-1,2.469615140E-1
1.447807542E1,1.023322716E-1,-2.780821174E-2,-1.518927813E-1,1.852474223E-1
1.448805442E1,7.594220340E-2,-2.977496013E-2,-1.271181852E-1,1.510390662E-1
1.449803242E1,8.285337687E-2,-4.426388815E-2,-1.421336085E-1,1.703699988E-1
1.450801142E1,1.104738414E-1,-7.243513316E-2,-1.833196133E-1,2.259588431E-1
1.451799042E1,1.284560412E-1,-8.336687833E-2,-2.362709790E-1,2.815581050E-1
1.452796942E1,1.250823587E-1,-7.979903370E-2,-2.728263140E-1,3.105602676E-1
1.453794842E1,1.130011901E-1,-6.230925769E-2,-2.910591066E-1,3.183820285E-1
1.454792742E1,9.956016392E-2,-7.539917529E-2,-2.955668569E-1,3.208691770E-1
1.455790642E1,9.610631317E-2,-1.209208518E-1,-2.903411984E-1,3.288712322E-1
1.456788542E1,1.039973274E-1,-1.754170209E-1,-2.691254616E-1,3.376612051E-1
1.457786442E1,1.208804324E-1,-2.181224078E-1,-2.301301360E-1,3.393366223E-1
1.458784342E1,1.436334103E-1,-2.595181167E-1,-1.720886081E-1,3.429208342E-1
1.459782242E1,1.740626842E-1,-2.876802683E-1,-1.143323556E-1,3.551473530E-1
1.460780142E1,2.016029656E-1,-2.816627324E-1,-7.080019265E-2,3.535396977E-1
1.461778042E1,2.192911506E-1,-2.431312948E-1,-4.280371591E-2,3.302023521E-1
1.462775942E1,2.173667699E-1,-1.746981591E-1,-2.282175794E-2,2.798009866E-1
1.463773842E1,2.058195770E-1,-1.059641168E-1,-1.295927353E-2,2.318577906E-1
1.464771742E1,1.871592849E-1,-5.943484604E-2,-1.309734304E-2,1.968060956E-1
1.465769542E1,1.681520343E-1,-2.641697600E-2,-2.747361921E-2,1.724174092E-1
1.466767442E1,1.483794153E-1,-9.990192950E-3,-4.821951315E-2,1.563373797E-1
1.467765342E1,1.283218116E-1,-3.859063610E-3,-7.610067725E-2,1.492403859E-1
1.468763242E1,9.811197221E-2,3.868094645E-4,-1.022201627E-1,1.416865215E-1
1.469761142E1,5.019610748E-2,1.132041682E-2,-1.242900491E-1,1.345206948E-1
1.470759042E1,-1.582311653E-2,3.536257148E-2,-1.350949556E-1,1.405401348E-1
1.471756942E1,-9.264386445E-2,5.549873039E-2,-1.271081269E-1,1.667916983E-1
1.472754842E1,-1.693884432E-1,6.074362993E-2,-1.035964862E-1,2.076402303E-1
1.473752742E1,-2.376910597E-1,5.162576586E-2,-6.867419183E-2,2.527417737E-1
1.474750642E1,-2.863885164E-1,3.976991028E-2,-3.010017052E-2,2.906992404E-1
1.475748542E1,-3.184348941E-1,2.367749438E-2,1.768281450E-3,3.193188568E-1
1.476746442E1,-3.288540840E-1,1.945994794E-2,1.555827819E-2,3.297965406E-1
1.477744342E1,-3.304117322E-1,2.262058854E-2,3.482707310E-3,3.312034617E-1
1.478742242E1,-3.225423396E-1,2.716695517E-2,-2.801776864E-2,3.248947516E-1
1.479740142E1,-3.118811548E-1,2.256208472E-2,-6.711456925E-2,3.198175539E-1
1.480738042E1,-3.000563979E-1,1.159426942E-2,-1.018772274E-1,3.170918455E-1
1.481735842E1,-2.866745591E-1,-8.520586416E-3,-1.235084832E-1,3.122647093E-1
1.482733742E1,-2.726040184E-1,-3.327846155E-2,-1.283633560E-1,3.031461002E-1
1.483731642E1,-2.677330971E-1,-4.750506580E-2,-1.148930937E-1,2.951917437E-1
1.484729542E1,-2.668947577E-1,-4.248036444E-2,-8.799555153E-2,2.842192994E-1
1.485727442E1,-2.655504048E-1,-2.465929091E-2,-5.305168033E-2,2.719183313E-1
1.486725342E1,-2.523206174E-1,-4.740431905E-6,-2.729738690E-2,2.537929103E-1
1.487723242E1,-2.321375757E-1,2.159402892E-2,-1.130057592E-2,2.334134940E-1
1.488721142E1,-2.032707781E-1,2.452284284E-2,-1.434498350E-3,2.047496931E-1
1.489719042E1,-1.720944792E-1,1.481455564E-2,9.577939287E-3,1.729962940E-1
1.490716942E1,-1.370089501E-1,3.022134537E-3,2.273096517E-2,1.389146590E-1
1.491714842E1,-9.926956147E-2,-1.052856073E-2,3.157478943E-2,1.047008298E-1
1.492712742E1,-5.839528143E-2,-2.707401663E-2,4.831119999E-2,8.047970747E-2
1.493710642E1,-2.102367580E-2,-3.669894487E-2,7.809066772E-2,8.880855749E-2
1.494708542E1,8.254021406E-3,-3.510645404E-2,1.255485415E-1,1.306255269E-1
1.495706442E1,3.532958031E-2,-1.714609936E-2,1.936466396E-1,1.975884333E-1
1.496704342E1,7.162019610E-2,2.245084196E-2,2.775599360E-1,2.875291479E-1
1.497702142E1,1.264091432E-1,6.692962348E-2,3.555457890E-1,3.832383776E-1
1.498700042E1,2.063753456E-1,8.422280103E-2,4.136600196E-1,4.698924082E-1
1.499697942E1,3.119851351E-1,9.364452958E-2,4.454544485E-1,5.518457104E-1
1.500695842E1,4.267793000E-1,6.822470576E-2,4.373503923E-1,6.148744157E-1
1.501693742E1,5.278960466E-1,4.806321580E-3,3.896481097E-1,6.561425045E-1
1.502691642E1,5.910433531E-1,-5.286084116E-2,3.134448230E-1,6.710992258E-1
1.503689542E1,6.000285745E-1,-9.724002331E-2,2.152135968E-1,6.448308341E-1
1.504687442E1,5.589762926E-1,-1.081166863E-1,1.167347431E-1,5.811804486E-1
1.505685342E1,4.913879335E-1,-1.231486276E-1,7.140340284E-3,5.066346515E-1
1.506683242E1,4.336545169E-1,-1.495531499E-1,-1.152784377E-1,4.729815038E-1
1.507681142E1,4.055896103E-1,-1.996131241E-1,-2.507086992E-1,5.169169984E-1
1.508679042E1,3.887523711E-1,-2.842310667E-1,-3.847317398E-1,6.163880408E-1
1.509676942E1,3.561640680E-1,-3.287383616E-1,-4.833624661E-1,6.845151769E-1
1.510674842E1,2.874856591E-1,-3.264145553E-1,-5.289946198E-1,6.848574844E-1
1.511672742E1,1.882871538E-1,-2.895984650E-1,-5.115322471E-1,6.172394697E-1
1.512670642E1,7.232193649E-2,-2.522259057E-1,-4.493566155E-1,5.203553958E-1
1.513668442E1,-4.648407176E-2,-1.808532178E-1,-3.674601316E-1,4.121839440E-1
1.514666342E1,-1.413125843E-1,-8.897648007E-2,-2.681983709E-1,3.159373777E-1
1.515664242E1,-1.966469437E-1,-2.808569930E-2,-1.623470336E-1,2.565450960E-1
1.516662142E1,-2.150565535E-1,1.793106459E-2,-6.427185982E-2,2.251704160E-1
1.517660042E1,-1.970250905E-1,4.498665407E-2,1.446166076E-3,2.021009072E-1
1.518657942E1,-1.545507014E-1,7.542594522E-2,3.744633123E-2,1.760034665E-1
1.519655842E1,-1.084303409E-1,1.015528888E-1,4.657990858E-2,1.556914125E-1
1.520653742E1,-7.709102333E-2,1.342749000E-1,3.771610558E-2,1.593589635E-1
1.521651642E1,-6.068621576E-2,1.879557073E-1,2.570871077E-2,1.991760591E-1
1.522649542E1,-5.802885070E-2,2.391428798E-1,1.528840885E-2,2.465570927E-1
1.523647442E1,-6.372082233E-2,2.659241855E-1,1.389903249E-3,2.734555676E-1
1.524645342E1,-8.405567706E-2,2.425011098E-1,-8.456327021E-3,2.567949660E-1
1.525643242E1,-1.165979058E-1,1.654324234E-1,-1.939039445E-3,2.024023671E-1
1.526641142E1,-1.438726783E-1,5.984415486E-2,3.726834804E-2,1.602173530E-1
1.527639042E1,-1.449725628E-1,-4.964239150E-2,1.053035930E-1,1.859307874E-1
1.528636942E1,-1.155571118E-1,-1.429279894E-1,1.915533841E-1,2.654704413E-1
1.529634742E1,-6.182704121E-2,-1.954172850E-1,2.955713868E-1,3.596845048E-1
1.530632642E1,7.031591609E-3,-1.970492452E-1,4.031327069E-1,4.487692366E-1
1.531630542E1,8.119530231E-2,-1.526439637E-1,4.859993458E-1,5.158373977E-1
1.532628442E1,1.486941874E-1,-8.463627100E-2,5.397934318E-1,5.662598420E-1
1.533626342E1,1.952806115E-1,-7.833369076E-3,5.579530001E-1,5.911915334E-1
1.534624242E1,2.179704756E-1,7.256913185E-2,5.546830893E-1,6.003754964E-1
1.535622142E1,2.153736204E-1,1.385191083E-1,5.390607119E-1,5.967912456E-1
1.536620042E1,1.925804466E-1,1.691156477E-1,5.183640122E-1,5.782634174E-1
1.537617942E1,1.563510597E-1,1.619315147E-1,4.958299398E-1,5.445317241E-1
1.538615842E1,1.034351140E-1,1.209909320E-1,4.631492794E-1,4.897396078E-1
1.539613742E1,2.796272375E-2,7.428254187E-2,4.217954576E-1,4.291983434E-1
1.540611642E1,-6.069255248E-2,3.759637848E-2,3.722679019E-1,3.790520603E-1
1.541609542E1,-1.589733213E-1,1.262285188E-2,3.109726012E-1,3.494793441E-1
1.542607442E1,-2.480674386E-1,1.170102693E-2,2.418389022E-1,3.466416345E-1
1.543605342E1,-3.091811240E-1,3.319646418E-2,1.761075556E-1,3.573637416E-1
1.544603242E1,-3.253386021E-1,4.526954144E-2,1.207341477E-1,3.499589573E-1
1.545601042E1,-2.913585305E-1,5.192212015E-2,7.581433654E-2,3.055053412E-1
1.546598942E1,-2.181050479E-1,6.560166925E-2,4.585302994E-2,2.323271213E-1
1.547596842E1,-1.283149719E-1,7.113092393E-2,3.138194606E-2,1.500305532E-1
1.548594742E1,-4.476153478E-2,6.843478233E-2,2.655438706E-2,8.597703124E-2
1.549592642E1,7.717384957E-3,7.267879695E-2,4.306625202E-2,8.483199644E-2
1.550590542E1,2.638613060E-2,5.981045961E-2,6.035436690E-2,8.897285300E-2
1.551588442E1,3.653570265E-2,3.062407672E-2,7.116413862E-2,8.565644324E-2
1.552586342E1,4.827037826E-2,-2.772684954E-2,7.112472504E-2,9.031906839E-2
1.553584242E1,6.394148618E-2,-9.693175554E-2,6.858433038E-2,1.348632243E-1
1.554582142E1,7.790017873E-2,-1.452914923E-1,5.388974398E-2,1.734420944E-1
1.555580042E1,8.749741316E-2,-1.750818789E-1,2.671351656E-2,1.975425868E-1
1.556577942E1,9.264003485E-2,-1.912233531E-1,-1.505705155E-2,2.130146982E-1
1.557575842E1,9.536231309E-2,-1.856299043E-1,-6.822359562E-2,2.195606775E-1
1.558573742E1,9.075903147E-2,-1.754256040E-1,-1.226752549E-1,2.325092740E-1
1.559571642E1,7.491855323E-2,-1.698079407E-1,-1.778245121E-1,2.570390699E-1
1.560569542E1,4.018903896E-2,-1.644125134E-1,-2.325318307E-1,2.876068248E-1
1.561567342E1,-9.751089849E-3,-1.527758390E-1,-2.837334871E-1,3.223976310E-1
1.562565242E1,-5.917933211E-2,-1.272775233E-1,-3.287527859E-1,3.574635024E-1
1.563563142E1,-9.992276877E-2,-7.917470485E-2,-3.635978401E-1,3.853006396E-1
1.564561042E1,-1.227522641E-1,-1.379233785E-2,-3.839733601E-1,4.033533044E-1
1.565558942E1,-1.289497167E-1,4.280622303E-2,-3.847616613E-1,4.080464902E-1
1.566556842E1,-1.238089278E-1,9.699992090E-2,-3.737212121E-1,4.054690860E-1
1.567554742E1,-1.027696952E-1,1.508082896E-1,-3.500172198E-1,3.947363736E-1
1.568552642E1,-6.636403501E-2,1.733871549E-1,-3.320294619E-1,3.804087988E-1
1.569550571E1,-1.319961995E-2,1.657918245E-1,-3.255691528E-1,3.655905255E-1
1.570548471E1,5.208539218E-2,1.397050321E-1,-3.304480016E-1,3.625276070E-1
1.571546371E1,1.144244000E-1,1.019970700E-1,-3.499734998E-1,3.820704073E-1
1.572544271E1,1.616462171E-1,6.753894687E-2,-3.578000069E-1,3.983865632E-1
1.573542171E1,1.888099164E-1,4.029374570E-2,-3.526201546E-1,4.020121191E-1
1.574540071E1,1.920019537E-1,3.326299042E-2,-3.199751377E-1,3.746401814E-1
1.575537971E1,1.814491749E-1,2.739045583E-2,-2.623749673E-1,3.201791118E-1
1.576535871E1,1.797293574E-1,1.484085806E-2,-2.025052160E-1,2.711664719E-1
1.577533771E1,2.003936172E-1,6.179193500E-3,-1.529882699E-1,2.521927734E-1
1.578531671E1,2.467832714E-1,-2.021551132E-2,-1.252955496E-1,2.775060805E-1
1.579529471E1,3.089326620E-1,-5.142616108E-2,-1.150924414E-1,3.336619693E-1
1.580527371E1,3.724780679E-1,-6.292601675E-2,-1.307672113E-1,3.997494943E-1
