"Time (s)","Gyroscope x (rad/s)","Gyroscope y (rad/s)","Gyroscope z (rad/s)","Absolute (rad/s)"
2.896958380E-3,1.385102272E-1,-2.203593217E-2,5.350275338E-2,1.501106591E-1
1.287595835E-2,6.329214573E-2,6.824623048E-2,8.617099375E-2,1.268419641E-1
2.285495843E-2,-2.486336976E-3,1.223717779E-1,1.118470654E-1,1.658034979E-1
3.283395839E-2,-3.937004879E-2,1.202110872E-1,1.292972267E-1,1.808825007E-1
4.281195835E-2,-3.952824324E-2,6.206149980E-2,1.282223761E-1,1.478346695E-1
5.279095843E-2,-1.306286175E-2,-1.990493946E-2,1.139496043E-1,1.164102972E-1
6.276995840E-2,1.754804514E-2,-9.576161951E-2,9.220968932E-2,1.340926861E-1
7.274895837E-2,3.881363571E-2,-1.294018775E-1,8.074769378E-2,1.573897528E-1
8.272795833E-2,4.177400470E-2,-1.225532815E-1,7.896178216E-2,1.516553241E-1
9.270695841E-2,2.992134914E-2,-9.655404091E-2,9.056185186E-2,1.357181600E-1
1.026859584E-1,9.440841153E-3,-7.149982452E-2,1.083001047E-1,1.301163598E-1
1.126639583E-1,-1.341545582E-2,-4.750181362E-2,1.319721490E-1,1.409008335E-1
1.226429584E-1,-3.123519942E-2,-3.036969900E-2,1.618701220E-1,1.676302260E-1
1.326219584E-1,-4.152482748E-2,-3.307140619E-2,1.851474494E-1,1.926073914E-1
1.426009584E-1,-4.663916305E-2,-4.005661234E-2,1.961010247E-1,2.055124221E-1
1.525799584E-1,-4.948456213E-2,-4.983680695E-2,1.945763081E-1,2.068631647E-1
1.625589584E-1,-5.437998474E-2,-5.839753896E-2,1.786231697E-1,1.956366327E-1
1.725379584E-1,-5.515777692E-2,-6.876908243E-2,1.602587551E-1,1.829055375E-1
1.825169583E-1,-5.730747804E-2,-7.984837145E-2,1.368716806E-1,1.685044997E-1
1.924959584E-1,-5.633784086E-2,-8.723324537E-2,1.156254262E-1,1.554118097E-1
2.024739584E-1,-5.418254435E-2,-1.010646373E-1,9.233874828E-2,1.472285756E-1
2.124529583E-1,-5.186186731E-2,-1.097177789E-1,7.709135115E-2,1.437731571E-1
2.224319584E-1,-4.935690016E-2,-1.170617118E-1,6.533721834E-2,1.428583217E-1
2.324109584E-1,-5.036744103E-2,-1.187784523E-1,6.069451571E-2,1.425798867E-1
2.423899584E-1,-5.353979766E-2,-1.129900739E-1,6.440190226E-2,1.406444871E-1
2.523689584E-1,-5.055778474E-2,-1.122682244E-1,7.597751170E-2,1.446818098E-1
2.623479584E-1,-4.434223101E-2,-1.069323123E-1,9.163024276E-2,1.476375773E-1
2.723269584E-1,-4.278109223E-2,-9.198445827E-2,1.106209084E-1,1.500944629E-1
2.823049584E-1,-4.210491478E-2,-6.300606579E-2,1.282989830E-1,1.490074401E-1
2.922839584E-1,-4.065024480E-2,-2.664040588E-2,1.410835832E-1,1.492204111E-1
3.022629584E-1,-3.443283215E-2,-2.081001177E-3,1.371652633E-1,1.414364166E-1
3.122419583E-1,-2.450274490E-2,1.714349166E-2,1.259973496E-1,1.294975518E-1
3.222209584E-1,-1.431429014E-2,2.065566927E-2,1.133268178E-1,1.160798139E-1
3.321999584E-1,-4.613967612E-3,2.222041041E-2,9.938824922E-2,1.019463556E-1
3.421789584E-1,1.073745545E-3,1.730261743E-2,8.588442206E-2,8.761659348E-2
3.521579584E-1,4.203265533E-3,6.067140959E-3,7.680266351E-2,7.715650823E-2
3.621359584E-1,3.506582230E-3,2.512353240E-3,7.000068575E-2,7.013347306E-2
3.721149584E-1,-3.916195594E-3,-3.814519383E-3,6.852447987E-2,6.874221037E-2
3.820939584E-1,-1.177252084E-2,-4.908943083E-4,7.119429857E-2,7.216274227E-2
3.920729584E-1,-1.715530455E-2,9.277114645E-3,6.793452799E-2,7.067863485E-2
4.020519584E-1,-1.661228761E-2,1.885970123E-2,6.693743914E-2,7.150019013E-2
4.120309583E-1,-1.086450368E-2,2.371684089E-2,6.624327600E-2,7.119478631E-2
4.220099584E-1,-6.835673470E-3,2.217780054E-2,6.643688679E-2,7.037358307E-2
4.319879584E-1,-1.083357446E-2,1.432114094E-2,6.652939320E-2,6.891024287E-2
4.419669583E-1,-2.037594654E-2,-7.563452236E-4,6.639543921E-2,6.945578164E-2
4.519459584E-1,-2.941100113E-2,-2.537939884E-2,6.079932675E-2,7.215039158E-2
4.619249584E-1,-3.804177791E-2,-4.371712729E-2,4.920765385E-2,7.602471495E-2
4.719039584E-1,-4.141333327E-2,-5.539382249E-2,3.421599045E-2,7.716394071E-2
4.818829584E-1,-3.648435324E-2,-6.444671005E-2,2.002746612E-2,7.671757209E-2
4.918619584E-1,-3.257875144E-2,-7.335252315E-2,1.317300368E-2,8.133569772E-2
5.018409584E-1,-3.278088570E-2,-7.338527590E-2,1.318205800E-2,8.144784736E-2
5.118189583E-1,-3.700149804E-2,-7.906439900E-2,1.599320397E-2,8.874724007E-2
5.217979584E-1,-4.506714642E-2,-8.296832442E-2,1.618122309E-2,9.579468944E-2
5.317769584E-1,-5.822743848E-2,-8.311566710E-2,1.839117147E-2,1.031352699E-1
5.417559583E-1,-7.302583009E-2,-7.715471834E-2,2.024526522E-2,1.081457035E-1
5.517349584E-1,-8.774396777E-2,-7.193791121E-2,2.160705253E-2,1.155029509E-1
5.617139584E-1,-9.854654968E-2,-6.141949445E-2,2.339909412E-2,1.184537646E-1
5.716929584E-1,-1.079683527E-1,-4.972954839E-2,2.826837264E-2,1.221854904E-1
5.816719584E-1,-1.134392917E-1,-2.532646991E-2,3.410735354E-2,1.211330448E-1
5.916499584E-1,-1.094043478E-1,3.310434520E-3,3.834610060E-2,1.159771259E-1
6.016289584E-1,-9.458092600E-2,2.757822350E-2,4.028621316E-2,1.064381931E-1
6.116079583E-1,-7.162576914E-2,5.091164261E-2,3.748845309E-2,9.553863236E-2
6.215869584E-1,-3.963667899E-2,6.593187153E-2,3.452222422E-2,8.431999745E-2
6.315659584E-1,-1.571325818E-3,6.471706927E-2,2.937020361E-2,7.108710839E-2
6.415449583E-1,3.594116494E-2,5.112775415E-2,2.129922621E-2,6.602629491E-2
6.515239584E-1,5.746988952E-2,3.894033283E-2,9.484111331E-3,7.006487059E-2
6.615029584E-1,5.985262245E-2,2.768927626E-2,-2.556838095E-3,6.599674125E-2
6.714809584E-1,4.745452106E-2,1.704968140E-2,-1.674377359E-2,5.313169637E-2
6.814599584E-1,2.461498789E-2,1.826254767E-3,-2.693649009E-2,3.653501518E-2
6.914389584E-1,-4.642228596E-3,-9.358022362E-3,-2.692150511E-2,2.887715890E-2
7.014179584E-1,-2.676643990E-2,-2.054756135E-2,-2.378616668E-2,4.128469823E-2
7.113969583E-1,-3.818361834E-2,-2.481201291E-2,-1.981302910E-2,4.966065662E-2
7.213759584E-1,-3.552471846E-2,-2.572201379E-2,-1.444782596E-2,4.617756263E-2
7.313549584E-1,-2.980217524E-2,-1.890705340E-2,-1.039472781E-2,3.679261724E-2
7.413339583E-1,-2.108405344E-2,-6.303116679E-4,-1.163948979E-2,2.409174807E-2
7.513119584E-1,-2.469533682E-2,4.314713180E-3,-4.877443239E-2,5.483996413E-2
7.612909584E-1,-3.106188960E-2,-3.870246001E-3,-1.057575494E-1,1.102926972E-1
7.712699583E-1,-4.420077801E-2,-2.411513031E-2,-1.551753283E-1,1.631399117E-1
7.812489584E-1,-5.784787983E-2,-4.405501485E-2,-1.810351461E-1,1.950921466E-1
7.912279584E-1,-7.069844007E-2,-6.413298845E-2,-1.758535653E-1,2.000894452E-1
8.012069584E-1,-8.387602866E-2,-8.401854336E-2,-1.547789127E-1,1.950661827E-1
8.111859583E-1,-9.451511502E-2,-8.759996295E-2,-1.245179623E-1,1.791970519E-1
8.211649584E-1,-9.977272898E-2,-7.635210454E-2,-8.627203852E-2,1.524044158E-1
8.311429584E-1,-9.985902160E-2,-4.543346912E-2,-4.381979629E-2,1.181363571E-1
8.411219583E-1,-8.662231266E-2,-9.702635929E-3,-4.978124984E-3,8.730605892E-2
8.511009584E-1,-6.551200897E-2,2.721044049E-2,2.349390648E-2,7.472747174E-2
8.610799584E-1,-3.811899945E-2,4.372923076E-2,3.587947041E-2,6.821026418E-2
8.710589583E-1,-1.441102847E-2,3.681040555E-2,4.298470169E-2,5.839835852E-2
8.810379584E-1,3.091267543E-3,2.016191930E-2,4.420762509E-2,4.868647698E-2
8.910169584E-1,1.146327704E-2,3.115025349E-3,4.666711390E-2,4.815526579E-2
9.009959584E-1,1.584737375E-2,-1.516079064E-4,4.574379697E-2,4.841133340E-2
9.109739584E-1,1.330167335E-2,1.845230581E-3,4.186997190E-2,4.397083052E-2
9.209529584E-1,4.367833026E-3,3.343258752E-3,3.777669370E-2,3.817504331E-2
9.309319584E-1,-1.042473409E-2,4.880567547E-3,3.789957613E-2,3.960900013E-2
9.409109583E-1,-2.740318514E-2,1.984113595E-3,3.689450026E-2,4.600081969E-2
9.508899584E-1,-3.502966836E-2,-2.052432485E-2,3.239050135E-2,5.193717506E-2
9.608689584E-1,-3.438491747E-2,-4.343922809E-2,2.463804185E-2,6.063268254E-2
9.708479583E-1,-2.935367078E-2,-5.052004009E-2,2.111840807E-2,6.212809025E-2
9.808269584E-1,-1.717290655E-2,-3.963463753E-2,1.147190481E-2,4.469248048E-2
9.908049584E-1,-4.501817282E-3,-2.446213923E-2,1.306171762E-3,2.490720176E-2
1.000784208E0,6.024060771E-3,-2.663633786E-3,-2.351413481E-3,6.993811441E-3
1.010763208E0,9.224890731E-3,1.535065286E-2,-3.281801241E-3,1.820745374E-2
1.020742208E0,1.210989244E-2,2.015872300E-2,-3.262626473E-3,2.374170043E-2
1.030721208E0,1.507815998E-2,1.884518564E-2,-2.663139952E-3,2.428135590E-2
1.040700208E0,1.731521450E-2,5.078242160E-3,2.351592295E-3,1.819712018E-2
1.050679208E0,1.938642561E-2,-7.863989100E-3,2.032656223E-3,2.101921773E-2
1.060657208E0,1.633497514E-2,-2.006206661E-2,6.921687629E-3,2.678110695E-2
1.070636208E0,6.867396645E-3,-2.742370963E-2,1.068004873E-2,3.022059608E-2
1.080615208E0,-1.055074204E-2,-3.093428724E-2,2.067329362E-2,3.867341921E-2
1.090594208E0,-2.306359634E-2,-3.492117301E-2,2.268065698E-2,4.760073530E-2
1.100573208E0,-3.678526729E-2,-3.868954629E-2,2.057542838E-2,5.721350483E-2
1.110552208E0,-4.738885537E-2,-4.165084660E-2,2.449550107E-2,6.767958487E-2
1.120531208E0,-6.501977891E-2,-4.382212460E-2,2.325606532E-2,8.178505260E-2
1.130510208E0,-7.450087368E-2,-4.940397292E-2,2.233023010E-2,9.213995820E-2
1.140489208E0,-7.825700194E-2,-5.342748016E-2,2.350601554E-2,9.762779704E-2
1.150467208E0,-7.647993416E-2,-4.662470147E-2,2.369639836E-2,9.265291367E-2
1.160446208E0,-6.769655645E-2,-2.593540214E-2,2.037570253E-2,7.530363931E-2
1.170425208E0,-4.916178063E-2,-7.736624219E-3,1.431293599E-2,5.178413044E-2
1.180404208E0,-2.992416918E-2,6.998646073E-3,8.279810660E-3,3.182753859E-2
1.190383208E0,-1.018691435E-2,2.733447775E-2,4.338953644E-3,2.949192121E-2
1.200362208E0,1.187071763E-2,4.147346690E-2,-2.223876072E-5,4.313887908E-2
1.210341208E0,2.140777186E-2,4.966228828E-2,-5.527653731E-3,5.436166415E-2
1.220320208E0,1.652033813E-2,4.797730595E-2,-4.242679104E-3,5.091899237E-2
1.230298208E0,1.699032029E-3,3.141137585E-2,-1.926536905E-3,3.151623053E-2
1.240277208E0,-1.742406189E-2,9.048547596E-3,-2.930282149E-3,1.985096219E-2
1.250256208E0,-3.464248404E-2,-8.981518447E-3,-3.143147798E-3,3.592560023E-2
1.260235208E0,-4.739742726E-2,-2.297243476E-2,2.948833164E-3,5.275362060E-2
1.270214208E0,-4.533105716E-2,-2.318588831E-2,1.098586805E-2,5.208818922E-2
1.280193208E0,-3.624355048E-2,-1.580227353E-2,1.738145016E-2,4.319052685E-2
1.290172208E0,-1.942439564E-2,-3.040072508E-3,1.871986501E-2,2.714742221E-2
1.300150208E0,-4.157025367E-3,1.620313153E-2,1.916488074E-2,2.543845484E-2
1.310129208E0,1.063053147E-3,3.508254513E-2,1.972069032E-2,4.025941731E-2
1.320108208E0,8.550796658E-3,4.809874669E-2,1.862852834E-2,5.228410489E-2
1.330087208E0,9.165983647E-3,5.262911692E-2,1.249839645E-2,5.486391453E-2
1.340066208E0,4.660979845E-3,4.846819118E-2,6.253017113E-3,4.909165420E-2
1.350045208E0,-8.655874990E-3,3.847894073E-2,8.478630334E-3,4.034154463E-2
1.360024208E0,-2.508731186E-2,2.983431891E-2,7.114293054E-3,3.962414626E-2
1.370003208E0,-3.368644789E-2,1.806268282E-2,4.614283331E-3,3.850102457E-2
1.379981208E0,-4.032117873E-2,1.800888800E-3,-9.439999703E-4,4.037241374E-2
1.389960208E0,-4.770501703E-2,-1.430664212E-2,-4.612541758E-3,5.001723903E-2
1.399939208E0,-5.756776780E-2,-2.365300618E-2,-5.958769470E-3,6.252215227E-2
1.409918208E0,-7.080776244E-2,-1.832921058E-2,-7.529963274E-3,7.352822267E-2
1.419897208E0,-7.661291957E-2,-1.064119767E-2,-5.518744234E-3,7.754502609E-2
1.429876208E0,-7.648080587E-2,1.503289677E-4,-3.073011991E-3,7.654266567E-2
1.439855208E0,-6.417407095E-2,1.739589497E-2,-3.412564984E-3,6.657757989E-2
1.449834208E0,-4.786985368E-2,2.583824843E-2,-4.672857467E-3,5.459829274E-2
1.459812208E0,-3.329756856E-2,2.205495909E-2,-7.591948844E-3,4.065448290E-2
1.469791208E0,-3.129141033E-2,1.576430723E-2,-1.099733263E-2,3.672338584E-2
1.479770208E0,-3.759058565E-2,6.966749206E-4,-1.352973282E-2,3.995736673E-2
1.489749208E0,-4.767436162E-2,2.546173753E-3,-1.261672284E-2,4.938126620E-2
1.499728208E0,-5.369257182E-2,3.198914463E-3,-5.550290458E-3,5.407338575E-2
1.509707208E0,-4.959765449E-2,3.648790764E-3,-9.127053781E-4,4.974006470E-2
1.519686208E0,-3.821104392E-2,-1.548101660E-3,4.937099875E-4,3.824557812E-2
1.529665208E0,-2.537844889E-2,-6.088726223E-3,1.545256586E-3,2.614433156E-2
1.539643208E0,-1.282936800E-2,-9.160149843E-3,-5.029805470E-4,1.577193767E-2
1.549622208E0,-5.677985027E-3,-1.057928149E-2,-7.701308001E-3,1.426432107E-2
1.559601208E0,-8.342477493E-3,-1.320808660E-2,-1.710546389E-2,2.316565081E-2
1.569580208E0,-1.498568896E-2,-7.325099315E-3,-1.896651648E-2,2.525780475E-2
1.579559208E0,-1.999908872E-2,6.682062987E-3,-2.025628649E-2,2.923919728E-2
1.589538208E0,-1.438861061E-2,2.217879891E-2,-2.032959275E-2,3.335001616E-2
1.599517208E0,-4.131979309E-3,2.832058072E-2,-2.521383017E-2,3.814270281E-2
1.609496208E0,-1.421438530E-3,3.249735013E-2,-2.527150325E-2,4.119159052E-2
1.619474208E0,-4.307425115E-4,4.166102037E-2,-2.234069444E-2,4.727507573E-2
1.629453208E0,-1.866469160E-3,4.902252927E-2,-1.617255807E-2,5.165504543E-2
1.639432208E0,-4.531227984E-3,4.997967184E-2,-1.560317259E-2,5.255433968E-2
1.649411208E0,-3.608358093E-3,4.573106021E-2,-1.752345823E-2,4.910622877E-2
1.659390208E0,-7.880702615E-4,3.813652322E-2,-2.605196461E-2,4.619221058E-2
1.669369208E0,-1.585134771E-3,3.154673427E-2,-2.547611296E-2,4.058006194E-2
1.679348208E0,-8.432654664E-3,2.160781622E-2,-1.922487468E-2,3.012645337E-2
1.689327208E0,-1.406932808E-2,3.018885851E-3,-1.346444711E-2,1.970662327E-2
1.699305208E0,-1.881348155E-2,-1.693378389E-2,-9.013505653E-3,2.686900462E-2
1.709284208E0,-1.999479532E-2,-2.995877340E-2,-9.902695194E-3,3.735482989E-2
1.719263208E0,-1.610125415E-2,-3.749019280E-2,-1.063612942E-2,4.216505888E-2
1.729242208E0,-1.024121512E-2,-4.405228421E-2,-7.383799646E-3,4.582583036E-2
1.739221208E0,-5.115162581E-3,-5.438934639E-2,-4.176554736E-3,5.478877165E-2
1.749200208E0,-3.562794300E-3,-5.913103744E-2,-3.128128359E-3,5.932080815E-2
1.759179208E0,-3.674114356E-3,-5.199083686E-2,-2.661808860E-3,5.218842266E-2
1.769158208E0,-4.089139402E-3,-4.164618626E-2,-8.919368498E-3,4.278645844E-2
1.779136208E0,-3.840932855E-3,-2.179871127E-2,-1.116920728E-2,2.479289756E-2
1.789115208E0,4.853005521E-3,-8.698889986E-3,-1.484593563E-2,1.787803553E-2
1.799094208E0,1.497861091E-2,7.028668188E-4,-1.584888063E-2,2.181833687E-2
1.809073208E0,2.155479230E-2,1.386141311E-2,-1.935717463E-2,3.211616500E-2
1.819052208E0,2.704969421E-2,2.078483254E-2,-1.905863360E-2,3.907590991E-2
1.829031208E0,3.092772886E-2,2.888770029E-2,-2.159126848E-2,4.751006751E-2
1.839010208E0,3.116954491E-2,2.473929338E-2,-2.266478911E-2,4.579591501E-2
1.848988208E0,2.947632223E-2,2.338960394E-2,-2.681371942E-2,4.620500724E-2
1.858967208E0,2.403468639E-2,2.048489451E-2,-2.939591929E-2,4.314414357E-2
1.868946208E0,1.716848649E-2,2.494096197E-2,-2.892675996E-2,4.187560094E-2
1.878925208E0,1.046131551E-2,2.479422279E-2,-2.280681580E-2,3.527525270E-2
1.888904208E0,5.155500025E-3,1.694854908E-2,-1.821020059E-2,2.540558801E-2
1.898883208E0,-5.870740861E-4,1.360269147E-3,-1.154830214E-2,1.164294938E-2
1.908862208E0,-6.456410978E-3,-8.482841775E-3,-4.785934463E-3,1.168541895E-2
1.918841208E0,-1.283841021E-2,-1.501690783E-2,4.868581600E-4,1.976282693E-2
1.928819208E0,-1.301734615E-2,-1.059892215E-2,1.802944113E-3,1.688309980E-2
1.938798208E0,-1.077762712E-2,1.946026459E-4,3.282063873E-3,1.126796609E-2
1.948777208E0,-2.453106223E-3,1.439198107E-2,8.758262731E-3,1.702509956E-2
1.958756208E0,5.313203670E-3,3.207483888E-2,4.321170039E-3,3.279783427E-2
1.968735208E0,6.111094728E-3,4.684060067E-2,-3.249526257E-3,4.734920032E-2
1.978714208E0,3.565379186E-3,5.447907746E-2,-1.018466428E-2,5.553745759E-2
1.988693208E0,-2.324029338E-3,5.336368456E-2,-1.251679007E-2,5.486122471E-2
1.998671708E0,-7.832512259E-3,5.093807727E-2,-1.723511331E-2,5.434229564E-2
2.008649708E0,-1.093636733E-2,4.027944058E-2,-2.063313313E-2,4.655924878E-2
2.018628708E0,-1.106686238E-2,2.743740939E-2,-2.250640094E-2,3.717290627E-2
2.028607708E0,-1.672364213E-2,1.305567287E-2,-2.741311677E-2,3.466424341E-2
2.038586708E0,-2.127871290E-2,1.133499900E-3,-3.068481013E-2,3.735807834E-2
2.048565708E0,-3.137047216E-2,-9.336317889E-3,-3.483946249E-2,4.780231691E-2
2.058544708E0,-3.508158773E-2,-2.251523733E-2,-4.259511828E-2,5.959863934E-2
2.068523708E0,-3.562520072E-2,-3.174095601E-2,-4.715528712E-2,6.708400940E-2
2.078502708E0,-3.561987728E-2,-3.703532368E-2,-5.158918351E-2,7.281369866E-2
2.088480708E0,-4.015075415E-2,-3.862136602E-2,-5.010676384E-2,7.492917159E-2
2.098459708E0,-4.068604857E-2,-2.824169770E-2,-4.261369258E-2,6.533662704E-2
2.108438708E0,-3.434740379E-2,-1.500725374E-2,-2.847586572E-2,4.707267510E-2
2.118417708E0,-2.456481196E-2,4.859928042E-3,-8.423327468E-3,2.641971485E-2
2.128396708E0,-1.352949068E-2,2.120381594E-2,1.199717820E-2,2.786720677E-2
2.138375708E0,-2.893891651E-3,3.759663552E-2,2.733006328E-2,4.657052684E-2
2.148354708E0,1.878775423E-3,5.049832165E-2,3.645885736E-2,6.231258755E-2
2.158332708E0,3.266282380E-3,5.797301605E-2,3.919179365E-2,7.005380704E-2
2.168311708E0,6.180837750E-3,6.023603678E-2,3.699348122E-2,7.095844231E-2
2.178290708E0,6.604813039E-3,5.385003984E-2,3.289727494E-2,6.344825486E-2
2.188269708E0,6.638577208E-3,4.003582522E-2,2.270145342E-2,4.650047307E-2
2.198248708E0,8.591206744E-3,2.804148197E-2,1.713677868E-2,3.396767181E-2
2.208227708E0,9.478081018E-3,9.582178667E-3,1.458696462E-2,1.986030475E-2
2.218206708E0,7.349149790E-3,-1.119287312E-2,1.475793961E-2,1.992704677E-2
2.228185708E0,5.698539317E-3,-2.785547450E-2,1.302103605E-2,3.127216318E-2
2.238163708E0,8.233564440E-4,-3.373093903E-2,1.264526416E-2,3.603271943E-2
2.248142708E0,-3.559903940E-3,-3.533769026E-2,1.655833609E-2,3.918678047E-2
2.258121708E0,-5.301611498E-3,-2.942840569E-2,2.232461236E-2,3.731657089E-2
2.268100708E0,-7.316714618E-4,-1.788126864E-2,3.455921263E-2,3.891804579E-2
2.278079708E0,6.608533207E-3,-1.108861156E-2,4.429759458E-2,4.614007914E-2
2.288058708E0,1.865078136E-2,-4.812604748E-3,4.955092072E-2,5.316301867E-2
2.298037708E0,3.097775578E-2,-4.415793810E-3,4.890616983E-2,5.805974540E-2
2.308016708E0,3.304416686E-2,-7.053656504E-3,4.851712659E-2,5.912345225E-2
2.317994708E0,2.875754237E-2,-1.211632509E-2,4.562120512E-2,5.527292225E-2
2.327973708E0,2.061839029E-2,-2.694800124E-2,3.785249963E-2,5.083428486E-2
2.337952708E0,4.815459251E-3,-3.608903661E-2,2.693087608E-2,4.528663487E-2
2.347931708E0,-6.980163045E-3,-4.598833993E-2,1.636381447E-2,4.930947688E-2
2.357910708E0,-1.373021025E-2,-4.885070398E-2,4.846706986E-3,5.097450855E-2
2.367889708E0,-1.688286662E-2,-4.071727768E-2,-4.268897697E-3,4.428488878E-2
2.377868708E0,-1.630842313E-2,-3.417042643E-2,-1.385814231E-2,4.031911229E-2
2.387847708E0,-1.699368283E-2,-1.900326088E-2,-1.640007645E-2,3.031289639E-2
2.397825708E0,-2.116712183E-2,-5.736527964E-4,-1.806881465E-2,2.783627466E-2
2.407804708E0,-1.875513047E-2,3.631212283E-3,-1.798574440E-2,2.623790432E-2
2.417783708E0,-1.210255362E-2,1.701752073E-3,-1.358620077E-2,1.827437046E-2
2.427762708E0,2.819639631E-4,-8.612737060E-3,-1.210833434E-2,1.486171268E-2
2.437741708E0,1.507129706E-2,-2.543246374E-2,-1.093947329E-2,3.152183819E-2
2.447720708E0,2.492494695E-2,-3.369978070E-2,-7.939117029E-3,4.266096317E-2
2.457699708E0,3.140788153E-2,-3.958350420E-2,-7.536979858E-3,5.108928354E-2
2.467677708E0,3.350005299E-2,-4.130510241E-2,-4.038790241E-3,5.333551220E-2
2.477656708E0,3.618611395E-2,-4.945197701E-2,4.324068315E-3,6.142988231E-2
2.487635708E0,3.828104958E-2,-5.510820076E-2,1.203390863E-2,6.817013646E-2
2.497614708E0,3.660378978E-2,-5.667334050E-2,1.941033266E-2,7.020303386E-2
2.507593708E0,3.792891651E-2,-5.670449883E-2,1.508984901E-2,6.986920952E-2
2.517572708E0,3.824503347E-2,-5.053049326E-2,7.440984249E-3,6.380737873E-2
2.527551708E0,3.125990182E-2,-4.503173009E-2,4.551547463E-4,5.482011804E-2
2.537530708E0,2.103123255E-2,-3.394579142E-2,-5.777011393E-5,3.993285408E-2
2.547508708E0,7.663443685E-3,-2.277376503E-2,1.293545647E-4,2.402892996E-2
2.557487708E0,-3.776697209E-3,-1.141218562E-2,3.288130043E-3,1.246247253E-2
2.567466708E0,-1.516414061E-2,-1.241040416E-3,7.421275368E-4,1.523292799E-2
2.577445708E0,-2.802694216E-2,7.956186309E-3,-2.415049821E-3,2.923427532E-2
2.587424708E0,-3.877438977E-2,6.544644013E-3,-1.504395623E-2,4.210233113E-2
2.597403708E0,-5.403456837E-2,-2.264427021E-4,-2.571204677E-2,5.984058158E-2
2.607382708E0,-6.475476921E-2,-5.520872306E-3,-3.090669401E-2,7.196446276E-2
2.617361708E0,-7.587613165E-2,-4.745094106E-3,-3.023637645E-2,8.181651260E-2
2.627339708E0,-7.303699106E-2,2.016138053E-3,-2.559930645E-2,7.741957999E-2
2.637318708E0,-5.479246750E-2,4.872112069E-3,-1.876936294E-2,5.812263721E-2
2.647297708E0,-2.876915038E-2,1.029817015E-2,-1.614177041E-2,3.455825623E-2
2.657276708E0,-2.722900826E-3,1.323244069E-2,-1.222745609E-2,1.822148067E-2
2.667255708E0,1.499827299E-2,2.086719126E-2,-5.878502037E-3,2.636180286E-2
2.677234708E0,2.241198160E-2,1.965358853E-2,6.201438373E-4,2.981518136E-2
2.687213708E0,2.428129129E-2,9.221120737E-3,5.427506752E-3,2.653427979E-2
2.697192708E0,2.376117557E-2,-1.355636306E-2,8.784154430E-3,2.873203461E-2
2.707170708E0,1.581272483E-2,-3.655975312E-2,5.165796727E-3,4.016644458E-2
2.717149708E0,-4.726905376E-3,-5.428708345E-2,1.200083178E-3,5.450569936E-2
2.727128708E0,-2.892570570E-2,-6.301126629E-2,4.509267397E-3,6.947985048E-2
2.737107708E0,-4.234750569E-2,-6.423605233E-2,8.364992216E-3,7.739221377E-2
2.747086708E0,-4.910932109E-2,-6.546936184E-2,1.504976396E-2,8.321332918E-2
2.757065708E0,-4.125672206E-2,-6.045143306E-2,2.183603123E-2,7.637607698E-2
2.767044708E0,-3.181071579E-2,-5.369645730E-2,2.832764387E-2,6.853967153E-2
2.777023708E0,-1.819477230E-2,-4.122274369E-2,2.981715091E-2,5.403172054E-2
2.787001708E0,-4.566889722E-3,-3.034060262E-2,3.167341277E-2,4.409777461E-2
2.796980708E0,3.879214637E-4,-1.029765233E-2,3.019003198E-2,3.190031594E-2
2.806959708E0,5.280922633E-3,2.427597530E-3,2.922794782E-2,2.980024005E-2
2.816938708E0,1.002481207E-2,7.508376148E-3,2.590112574E-2,2.877048634E-2
2.826917708E0,1.314819977E-2,1.238994952E-2,2.103555389E-2,2.772869513E-2
2.836896708E0,1.776212640E-2,1.582622528E-2,1.819715649E-2,2.995161173E-2
2.846875708E0,1.693328843E-2,1.821475103E-2,1.750262827E-2,3.041143549E-2
2.856853708E0,1.181522571E-2,2.265423909E-2,1.821076311E-2,3.137588246E-2
2.866832708E0,6.879671477E-3,2.172292955E-2,2.027503401E-2,3.050069757E-2
2.876811708E0,3.389548510E-6,2.068429813E-2,1.620279439E-2,2.627490716E-2
2.886790708E0,6.833369844E-5,1.486748829E-2,9.276089258E-3,1.752406088E-2
2.896769708E0,8.387863636E-4,6.081986707E-3,4.211022519E-3,7.444920115E-3
2.906748708E0,2.097703284E-3,4.979304038E-3,7.951448206E-4,5.461326126E-3
2.916727708E0,4.907604307E-3,1.675919280E-3,2.289977157E-3,5.668975291E-3
2.926706708E0,2.979926299E-3,-1.249827445E-3,5.104351323E-3,6.041227675E-3
2.936684708E0,-3.624713048E-3,-6.939937361E-3,9.012007155E-3,1.193807138E-2
2.946663708E0,-1.305704750E-2,-8.374316618E-3,1.533837989E-2,2.181470985E-2
2.956642708E0,-1.552260108E-2,-1.451396756E-2,2.042129077E-2,2.947262315E-2
2.966621708E0,-1.349746995E-2,-1.946371980E-2,2.105223015E-2,3.168934328E-2
2.976600708E0,-9.909393266E-3,-2.720872499E-2,2.298036031E-2,3.696765817E-2
2.986579708E0,-3.636270761E-3,-3.086764179E-2,2.167037502E-2,3.788982618E-2
2.996559083E0,-4.458388779E-3,-3.161945194E-2,2.379477769E-2,3.982283788E-2
3.006538083E0,-6.217496470E-3,-3.608137742E-2,2.298199758E-2,4.322840815E-2
3.016516083E0,-1.113315951E-2,-4.147028551E-2,2.324192226E-2,4.882539064E-2
3.026495083E0,-1.835909486E-2,-3.887084126E-2,2.157406509E-2,4.809822189E-2
3.036474083E0,-1.914952137E-2,-3.794059902E-2,1.486023515E-2,4.502243676E-2
3.046453083E0,-1.469307765E-2,-3.426104039E-2,5.912088323E-3,3.774464476E-2
3.056432083E0,-1.302114502E-2,-2.065415308E-2,5.862819497E-3,2.511009577E-2
3.066411083E0,-1.537370309E-2,-4.445289727E-3,9.267656133E-3,1.849326358E-2
3.076390083E0,-1.441895962E-2,9.167724289E-3,1.493859198E-2,2.269614715E-2
3.086368083E0,-9.965875186E-3,2.161860093E-2,1.994261332E-2,3.105463573E-2
3.096347083E0,-5.992173217E-3,2.274671569E-2,2.095115185E-2,3.150031712E-2
3.106326083E0,-6.174592301E-3,1.854810864E-2,1.538927667E-2,2.487946463E-2
3.116305083E0,-9.635370225E-3,7.952457294E-3,7.256515790E-3,1.444780114E-2
3.126284083E0,-1.460531354E-2,-2.684206236E-3,3.136897227E-3,1.517762402E-2
3.136263083E0,-2.019182593E-2,-6.718096323E-3,3.039958188E-3,2.149613915E-2
3.146242083E0,-2.209533378E-2,-1.122017018E-2,1.118930639E-3,2.480620890E-2
3.156221083E0,-1.717434451E-2,-7.740483619E-3,7.590678521E-3,2.030988913E-2
3.166199083E0,-8.529931307E-3,-1.232152246E-2,1.503663720E-3,1.506122998E-2
3.176178083E0,2.689966001E-3,-7.580828853E-3,4.808912985E-3,9.371794240E-3
3.186157083E0,9.825950488E-3,-7.243074011E-3,1.023959089E-2,1.593300492E-2
3.196136083E0,1.304784324E-2,-1.001423225E-3,1.212777197E-2,1.784185850E-2
3.206115083E0,1.269682590E-2,5.112595391E-3,1.236192323E-2,1.844356705E-2
3.216094083E0,1.520898566E-2,8.886028081E-3,1.548448019E-2,2.345301402E-2
3.226073083E0,1.375195011E-2,1.001660712E-2,1.378344093E-2,2.189593099E-2
3.236052083E0,1.544066053E-2,9.968403727E-3,1.196902897E-2,2.193264063E-2
3.246030083E0,1.600445993E-2,3.828618908E-3,8.057782426E-3,1.832290692E-2
3.256009083E0,1.233222708E-2,-6.691133138E-3,5.843097344E-3,1.519858132E-2
3.265988083E0,6.048244424E-3,-2.104923315E-2,1.958817709E-3,2.198837065E-2
3.275967083E0,-5.436104722E-3,-3.206539899E-2,5.519730039E-3,3.298800489E-2
3.285946083E0,-1.395538449E-2,-3.056477383E-2,9.218332358E-3,3.484158158E-2
3.295925083E0,-1.388401166E-2,-2.347064391E-2,1.369537320E-2,3.051557229E-2
3.305904083E0,-1.064930391E-2,-1.957151294E-2,1.755112223E-2,2.836359787E-2
3.315883083E0,-4.893946461E-3,-1.537277084E-2,2.068033628E-2,2.622878388E-2
3.325861083E0,-2.693622373E-3,-1.662185974E-2,2.167883515E-2,2.745020431E-2
3.335840083E0,-4.701488651E-4,-1.496350951E-2,2.079466544E-2,2.562314906E-2
3.345819083E0,-3.138133325E-4,-1.017821021E-2,1.870555431E-2,2.129770419E-2
3.355798083E0,-2.254725201E-3,-2.379142679E-3,1.523039490E-2,1.557912175E-2
3.365777083E0,-5.200681277E-3,8.855668828E-3,1.201624516E-2,1.580696378E-2
3.375756083E0,-9.935515933E-3,1.535804290E-2,1.110624336E-2,2.139935981E-2
3.385735083E0,-1.121232100E-2,2.663366869E-2,1.152610034E-2,3.111140368E-2
3.395713083E0,-8.851163089E-3,2.649651654E-2,1.346062124E-2,3.100962433E-2
3.405692083E0,-2.074504038E-3,1.446761750E-2,1.514951605E-2,2.105049547E-2
3.415671083E0,6.428058259E-5,4.146803170E-3,1.464378182E-2,1.521973898E-2
3.425650083E0,-1.309872605E-3,-3.523968160E-3,1.409393270E-2,1.458674250E-2
3.435629083E0,-7.651924621E-3,-1.092142984E-2,1.149841584E-2,1.760804211E-2
3.445608083E0,-1.387624815E-2,-1.559128426E-2,1.050666627E-2,2.336725152E-2
3.455587083E0,-1.721026003E-2,-1.821210049E-2,1.525401697E-2,2.933528061E-2
3.465566083E0,-1.697987504E-2,-1.710961945E-2,2.464280464E-2,3.447206194E-2
3.475544083E0,-1.328047924E-2,-1.699430496E-2,2.955687046E-2,3.658942636E-2
3.485523083E0,-1.129935309E-2,-1.345416531E-2,3.685633093E-2,4.082987967E-2
3.495502083E0,-1.401204802E-2,-1.456869766E-2,4.239064455E-2,4.696329616E-2
3.505481083E0,-1.790591516E-2,-1.883947477E-2,4.092147201E-2,4.847797932E-2
3.515460083E0,-2.746479772E-2,-2.084829658E-2,3.726841509E-2,5.077303761E-2
3.525439083E0,-3.037798032E-2,-2.046586759E-2,3.766871989E-2,5.254146822E-2
3.535418083E0,-3.248933330E-2,-1.501251198E-2,3.813131154E-2,5.229655069E-2
3.545396083E0,-2.931779996E-2,-3.779964522E-3,4.291606322E-2,5.211151512E-2
3.555375083E0,-2.440613136E-2,2.294972073E-3,4.884425923E-2,5.465059748E-2
3.565354083E0,-2.023283578E-2,1.378924213E-2,4.521624371E-2,5.142003051E-2
3.575333083E0,-1.458160765E-2,1.933048293E-2,3.423043713E-2,4.192867370E-2
3.585312083E0,-9.731816128E-3,2.079967968E-2,2.064992674E-2,3.088291428E-2
3.595291083E0,-1.181360893E-2,1.494498644E-2,9.726705961E-3,2.138978225E-2
3.605270083E0,-1.453852374E-2,1.163387764E-2,-1.370399841E-3,1.867066623E-2
3.615249083E0,-2.231149189E-2,1.700573973E-2,-1.699566608E-3,2.810491738E-2
3.625227083E0,-2.479439974E-2,2.534669638E-2,8.798386902E-3,3.653257297E-2
3.635206083E0,-2.307080477E-2,2.935981378E-2,1.869762316E-2,4.175957148E-2
3.645185083E0,-1.631856710E-2,2.725285292E-2,1.963895187E-2,3.734570999E-2
3.655164083E0,-1.182954386E-2,1.442866586E-2,1.704663225E-2,2.527275563E-2
3.665143083E0,-1.142860390E-2,9.634611197E-4,1.306751370E-2,1.738680991E-2
3.675122083E0,-1.715519838E-2,-6.689398084E-3,1.060036104E-2,2.124656519E-2
3.685101083E0,-2.032161318E-2,-1.044339407E-2,7.319938391E-3,2.399195573E-2
3.695080083E0,-2.546444349E-2,-8.635906503E-3,3.276727162E-3,2.708788852E-2
3.705058083E0,-3.056676872E-2,-7.539882790E-3,-1.652601059E-4,3.148340028E-2
3.715037083E0,-2.976356260E-2,-5.434654187E-3,-2.100046724E-3,3.032845729E-2
3.725016083E0,-2.533980459E-2,-4.753883462E-3,2.830716781E-3,2.593680902E-2
3.734995083E0,-1.860759966E-2,-3.467310220E-3,1.144817378E-2,2.212070723E-2
3.744974083E0,-8.499093354E-3,-8.307124954E-4,1.829985157E-2,2.019428727E-2
3.754953083E0,-6.081209052E-3,1.797028584E-3,2.253427729E-2,2.340948671E-2
3.764932083E0,-6.557586603E-3,6.115408614E-3,2.300882712E-2,2.469425622E-2
3.774910083E0,-1.536625717E-2,1.179167069E-2,2.175021730E-2,2.912451390E-2
3.784889083E0,-1.839457825E-2,1.412686426E-2,2.221105061E-2,3.211323049E-2
3.794868083E0,-1.546936389E-2,1.343098003E-2,2.090982907E-2,2.927308312E-2
3.804847083E0,-1.436308306E-2,2.759094117E-3,1.864514872E-2,2.369709531E-2
3.814826083E0,-1.322351489E-2,-8.916470222E-3,1.453402545E-2,2.157782851E-2
3.824805083E0,-1.375429519E-2,-1.995054446E-2,9.157428518E-3,2.590489061E-2
3.834784083E0,-1.929367147E-2,-2.726598270E-2,5.678806920E-3,3.388109236E-2
3.844763083E0,-3.083044663E-2,-2.560583502E-2,5.604064092E-3,4.046703301E-2
3.854741083E0,-4.224901646E-2,-1.864513010E-2,6.918333936E-3,4.669564876E-2
3.864720083E0,-5.186329409E-2,-1.069586165E-2,7.711955812E-3,5.351333472E-2
3.874699083E0,-5.487799272E-2,-6.891269237E-3,7.987060584E-3,5.588270585E-2
3.884678083E0,-5.345243961E-2,1.809611567E-3,8.506551385E-3,5.415532670E-2
3.894657083E0,-4.212681577E-2,9.026245214E-3,9.814163670E-3,4.418664411E-2
3.904636083E0,-3.381615877E-2,1.355475094E-2,4.226515535E-3,3.667597716E-2
3.914615083E0,-2.705838718E-2,1.922488771E-2,9.305875283E-4,3.320570158E-2
3.924594083E0,-2.148750983E-2,2.464395203E-2,-3.083312185E-4,3.269759194E-2
3.934572083E0,-1.765069366E-2,2.706902660E-2,1.580648939E-3,3.235394317E-2
3.944551083E0,-1.182155032E-2,2.393288910E-2,1.524465508E-3,2.673679539E-2
3.954530083E0,-7.919752970E-3,2.188118920E-2,3.335947637E-3,2.350824269E-2
3.964509083E0,-5.558696110E-3,1.704256050E-2,1.983728725E-3,1.803560785E-2
3.974488083E0,-4.502220545E-3,1.222463511E-2,-1.505286782E-4,1.302821370E-2
3.984467083E0,-6.437527016E-3,7.082670461E-3,-2.001217101E-3,9.778079813E-3
3.994448958E0,-8.651413023E-3,-1.932928804E-3,-1.748211216E-4,8.866438038E-3
4.004427958E0,-9.242638946E-3,-9.422469884E-3,2.260303823E-3,1.339097781E-2
4.014405958E0,-4.586634226E-3,-1.740423031E-2,4.794301465E-3,1.862605092E-2
4.024384958E0,6.336599588E-3,-1.473381277E-2,8.237977512E-3,1.803058531E-2
4.034363958E0,1.443234272E-2,-1.558096427E-2,1.039194223E-2,2.364426838E-2
4.044342958E0,2.137655765E-2,-1.346088853E-2,1.600170508E-2,2.990329919E-2
4.054321958E0,2.681047097E-2,-5.565947853E-3,1.712263003E-2,3.229497776E-2
4.064300958E0,3.033705242E-2,2.384519903E-3,1.841733977E-2,3.556994643E-2
4.074279958E0,3.137808293E-2,7.847591769E-4,1.941256411E-2,3.690592880E-2
4.084258958E0,2.869992331E-2,-2.657373901E-3,2.202746458E-2,3.627611376E-2
4.094236958E0,2.509533614E-2,-4.186028615E-3,2.792183869E-2,3.777469797E-2
4.104215958E0,2.406182513E-2,-6.688802969E-3,3.349501267E-2,4.178070592E-2
4.114194958E0,2.098720707E-2,-1.378799044E-2,3.612914681E-2,4.399871351E-2
4.124173958E0,1.434773952E-2,-2.236676589E-2,3.986606374E-2,4.791067610E-2
4.134152958E0,8.159352466E-3,-3.309930488E-2,4.314814135E-2,5.499000926E-2
4.144131958E0,-2.362813102E-3,-3.698618710E-2,4.270524904E-2,5.654466569E-2
4.154110958E0,-1.247989573E-2,-3.587724641E-2,3.887828812E-2,5.435481482E-2
4.164088958E0,-2.766796015E-2,-3.099314496E-2,3.261090443E-2,5.281630563E-2
4.174067958E0,-4.084421322E-2,-2.184784785E-2,3.069662303E-2,5.556852413E-2
4.184046958E0,-4.528984427E-2,-1.520732325E-2,2.934006602E-2,5.606489230E-2
4.194025958E0,-4.325598851E-2,-7.554196753E-3,2.936509997E-2,5.282476244E-2
4.204004958E0,-3.958455473E-2,1.455810154E-3,3.370498866E-2,5.201040874E-2
4.213983958E0,-3.571711108E-2,1.183015388E-2,3.720464930E-2,5.291361351E-2
4.223962958E0,-3.281510249E-2,2.333134972E-2,3.574248031E-2,5.383964830E-2
4.233941958E0,-2.983475849E-2,2.512285858E-2,3.137169778E-2,5.005451288E-2
4.243919958E0,-2.724504657E-2,1.374203712E-2,2.402094565E-2,3.883480368E-2
4.253898958E0,-2.722374164E-2,-2.446186263E-4,1.502398960E-2,3.109521202E-2
4.263877958E0,-2.821578458E-2,-4.032698460E-3,8.664616384E-3,2.979041345E-2
4.273856958E0,-2.835746482E-2,-1.363944728E-3,5.694658495E-3,2.895574713E-2
4.283835958E0,-2.712970227E-2,4.867651500E-3,7.618755568E-3,2.859650700E-2
4.293814958E0,-2.006433532E-2,1.136256941E-2,9.298144840E-3,2.486244221E-2
4.303793958E0,-7.038516924E-3,9.423786774E-3,1.310355403E-2,1.760828231E-2
4.313771958E0,5.509232637E-3,6.833596621E-3,1.886610314E-2,2.080816029E-2
4.323750958E0,1.387655362E-2,4.214911722E-3,2.637537755E-2,3.009958077E-2
4.333729958E0,1.269810461E-2,2.889988944E-3,3.372037783E-2,3.614772161E-2
4.343708958E0,8.998728357E-3,2.994646784E-4,3.733596578E-2,3.840626423E-2
4.353687958E0,1.967450604E-3,-4.871595185E-3,3.793517500E-2,3.829726888E-2
4.363666958E0,-6.488355808E-3,-1.017308328E-2,3.998440877E-2,4.176533645E-2
4.373645958E0,-9.420496412E-3,-2.423297614E-2,3.889730573E-2,4.678657156E-2
4.383624958E0,-1.183771901E-2,-4.116222262E-2,3.616131097E-2,5.605444294E-2
4.393602958E0,-1.200043783E-2,-5.734465271E-2,3.293915465E-2,6.721166277E-2
4.403581958E0,-1.360985264E-2,-6.797752529E-2,2.719701082E-2,7.447046013E-2
4.413560958E0,-1.806505397E-2,-6.503579766E-2,2.252422832E-2,7.115716417E-2
4.423539958E0,-2.091603167E-2,-5.201933533E-2,2.329704165E-2,6.071444457E-2
4.433518958E0,-2.463407069E-2,-3.296228498E-2,2.643211372E-2,4.890814151E-2
4.443497958E0,-3.188451380E-2,-1.286280993E-2,3.038818017E-2,4.588589754E-2
4.453476958E0,-3.284937888E-2,8.741019294E-3,3.103506193E-2,4.602892764E-2
4.463455958E0,-3.130710870E-2,2.422357351E-2,2.703208476E-2,4.793381036E-2
4.473433958E0,-2.729798667E-2,3.119439632E-2,2.051186748E-2,4.624940157E-2
4.483412958E0,-1.928215846E-2,3.041682020E-2,1.442460157E-2,3.879502180E-2
4.493391958E0,-1.353585534E-2,2.364866249E-2,1.011347584E-2,2.906477268E-2
4.503370958E0,-1.098532975E-2,1.947176084E-2,7.685482036E-3,2.364093006E-2
4.513349958E0,-1.251078863E-2,1.338590495E-2,4.438822623E-3,1.885219960E-2
4.523328958E0,-1.552446187E-2,6.681530736E-3,5.100193899E-3,1.765400088E-2
4.533307958E0,-1.703074574E-2,-2.279473469E-3,6.001407281E-3,1.820052717E-2
4.543285958E0,-1.560760662E-2,-1.199381799E-2,4.189821891E-3,2.012470277E-2
4.553264958E0,-1.337507926E-2,-1.672252640E-2,6.035924889E-3,2.224787684E-2
4.563243958E0,-1.181676518E-2,-9.743715636E-3,8.479705080E-3,1.750660824E-2
4.573222958E0,-9.508603252E-3,-3.151859157E-3,1.176231727E-2,1.544991455E-2
4.583201958E0,-9.417503607E-4,-2.087331377E-4,1.123707369E-2,1.127839919E-2
4.593180958E0,8.175848052E-3,-4.846367519E-4,1.317745261E-2,1.551530281E-2
4.603159958E0,1.161526702E-2,-3.244403284E-3,1.003109477E-2,1.568640950E-2
4.613138958E0,7.114259060E-3,-9.998911992E-4,1.472092140E-2,1.638041487E-2
4.623116958E0,-3.915992565E-3,1.599686337E-3,1.718988828E-2,1.770271881E-2
4.633095958E0,-9.634066373E-3,4.867385142E-3,2.114707977E-2,2.374248630E-2
4.643074958E0,-7.121580653E-3,3.368826583E-4,2.071535029E-2,2.190790128E-2
4.653053958E0,-6.727699190E-3,-2.850920893E-3,2.146609500E-2,2.267560189E-2
4.663032958E0,-5.392970517E-3,-4.697896075E-4,2.458489686E-2,2.517383537E-2
4.673011958E0,-7.187408395E-3,-6.234201603E-3,2.738867328E-2,2.899419826E-2
4.682990958E0,-9.854535572E-3,-1.093967445E-2,2.780966833E-2,3.146690327E-2
4.692969958E0,-1.795027964E-2,-8.953222074E-3,2.399415709E-2,3.127446721E-2
4.702947958E0,-2.657039091E-2,-6.490730681E-3,2.064110711E-2,3.426617225E-2
4.712926958E0,-2.703484707E-2,-8.328445256E-4,1.830258593E-2,3.265824915E-2
4.722905958E0,-1.932740025E-2,-1.016736496E-4,1.301687304E-2,2.330231151E-2
4.732884958E0,-7.434521802E-3,-5.863955244E-3,9.123331867E-3,1.314888854E-2
4.742863958E0,-3.985804506E-3,-8.035030216E-3,4.200231284E-3,9.904054269E-3
4.752842958E0,-7.544586435E-3,-9.115474299E-3,3.158402629E-3,1.224696547E-2
4.762821958E0,-1.459608041E-2,-1.051962748E-2,-1.706244424E-3,1.807261452E-2
4.772799958E0,-2.193335444E-2,-8.802954108E-3,-3.067652229E-3,2.383221618E-2
4.782778958E0,-2.651930228E-2,-8.530246094E-3,-1.473740325E-3,2.789642275E-2
4.792757958E0,-3.023867123E-2,-3.803933971E-3,1.576644485E-3,3.051774826E-2
4.802736958E0,-3.078252263E-2,-5.591979716E-3,1.795002841E-3,3.133777229E-2
4.812715958E0,-2.415311709E-2,-1.203523204E-2,-4.049038049E-3,2.728762695E-2
4.822694958E0,-2.495501190E-2,-2.343382686E-2,-1.598141855E-3,3.427026288E-2
4.832673958E0,-2.860380709E-2,-2.983686328E-2,2.299128100E-3,4.139688612E-2
4.842652958E0,-2.983816899E-2,-2.303322218E-2,7.052013185E-3,3.834809699E-2
4.852631958E0,-2.853535302E-2,-2.297463268E-2,1.219750661E-2,3.861190602E-2
4.862609958E0,-2.017437853E-2,-2.735759504E-2,1.372315176E-2,3.665744740E-2
4.872588958E0,-1.433832757E-2,-3.449593112E-2,1.398440730E-2,3.988885244E-2
4.882567958E0,-9.996991605E-3,-3.411995992E-2,1.107664034E-2,3.723981025E-2
4.892546958E0,-1.193470787E-2,-3.224882483E-2,5.480805878E-3,3.482044210E-2
4.902525958E0,-1.196223404E-2,-2.941362187E-2,7.634912618E-4,3.176222778E-2
4.912504958E0,-1.070309151E-2,-2.928978577E-2,-5.885955761E-4,3.118964833E-2
4.922483958E0,-6.329094991E-3,-2.792285196E-2,-3.329174826E-3,2.882406131E-2
4.932461958E0,-3.163928399E-3,-2.781153284E-2,-1.693194965E-3,2.804208821E-2
4.942440958E0,-4.869682714E-3,-1.658977009E-2,-7.978400099E-4,1.730811458E-2
4.952419958E0,-3.925858997E-3,-8.137163706E-3,-2.947011031E-3,9.503192940E-3
4.962398958E0,-2.218018752E-3,-2.936865203E-4,-2.438311232E-3,3.309262851E-3
4.972377958E0,-5.877734628E-3,4.434223287E-3,-9.354893700E-4,7.421943200E-3
4.982356958E0,-7.183482405E-3,8.084352128E-3,2.333274577E-3,1.106360425E-2
4.992335958E0,-7.627698127E-3,3.941538744E-3,3.007320687E-3,9.097333901E-3
5.002311792E0,-8.626329713E-3,-4.371853080E-3,1.549342182E-3,9.794239371E-3
5.012289792E0,-8.040434681E-3,-1.214269083E-2,5.245577195E-4,1.457287519E-2
5.022268792E0,-4.710975103E-3,-1.913735084E-2,-4.185657948E-3,2.014823109E-2
5.032247792E0,-3.761824220E-3,-2.529324777E-2,-7.896506228E-3,2.676293173E-2
5.042226792E0,-1.016363269E-3,-2.512799762E-2,-1.169483457E-2,2.773478708E-2
5.052205792E0,2.773847431E-3,-2.115216292E-2,-1.385998540E-2,2.544027164E-2
5.062184792E0,4.914512858E-3,-1.946372166E-2,-1.545840222E-2,2.533675387E-2
5.072163792E0,6.792573724E-3,-1.339837071E-2,-1.535161119E-2,2.147853257E-2
5.082141792E0,5.266816355E-3,-7.068036590E-3,-1.969604567E-2,2.157847795E-2
5.092120792E0,3.534962423E-3,-2.094583586E-3,-2.390597202E-2,2.425651949E-2
5.102099792E0,-4.126955755E-3,7.255042437E-3,-2.474813163E-2,2.611776070E-2
5.112078792E0,-8.607724681E-3,1.697451621E-2,-2.446850017E-2,3.099894555E-2
5.122057792E0,-5.868659355E-3,1.711319946E-2,-2.468627691E-2,3.060580053E-2
5.132036792E0,1.367681893E-3,1.558800787E-2,-2.236932702E-2,2.729914531E-2
5.142015792E0,7.046889514E-3,1.297118515E-2,-2.108221129E-2,2.573654850E-2
5.151994792E0,1.566301472E-2,8.335154504E-3,-2.062254958E-2,2.720467574E-2
5.161972792E0,1.785353199E-2,2.052956726E-3,-1.582928561E-2,2.394847633E-2
5.171951792E0,2.026156150E-2,2.357888734E-3,-1.496029459E-2,2.529626312E-2
5.181930792E0,1.890438050E-2,3.928953782E-3,-1.664855890E-2,2.549483856E-2
5.191909792E0,1.995552890E-2,5.830716807E-3,-2.000920288E-2,2.885461128E-2
5.201888792E0,2.117076144E-2,-8.500886615E-4,-2.236022428E-2,3.080427601E-2
5.211867792E0,2.207650244E-2,-2.377144992E-3,-2.100893669E-2,3.056792762E-2
5.221846792E0,2.429880947E-2,1.078374102E-3,-1.687930338E-2,2.960584258E-2
5.231824792E0,2.656862140E-2,4.571376368E-3,-1.767265797E-2,3.223525965E-2
5.241803792E0,3.304947913E-2,5.131903570E-3,-1.712234691E-2,3.757365125E-2
5.251782792E0,3.990152478E-2,4.140675068E-3,-1.117630675E-2,4.164356736E-2
5.261761792E0,4.038624838E-2,7.695528679E-3,-4.444683902E-3,4.135245379E-2
5.271740792E0,4.132527858E-2,1.215659082E-2,2.362621948E-3,4.314097046E-2
5.281719792E0,3.933266923E-2,1.772845536E-2,6.882785819E-3,4.368901165E-2
5.291698792E0,3.469637036E-2,1.586717181E-2,9.169109166E-3,3.923872858E-2
5.301677792E0,2.504129894E-2,1.628449187E-2,1.535213739E-2,3.358480982E-2
5.311655792E0,1.885371096E-2,1.157655474E-2,2.107313834E-2,3.055415187E-2
5.321634792E0,1.255485881E-2,9.014725685E-3,2.393008396E-2,2.848751792E-2
5.331613792E0,6.840781309E-3,4.136347212E-3,2.535647340E-2,2.658677116E-2
5.341592792E0,1.478731516E-3,2.953504911E-3,2.581278048E-2,2.602324873E-2
5.351571792E0,8.534213994E-4,3.309569554E-3,2.284601890E-2,2.310026316E-2
5.361550792E0,5.885795690E-3,2.380392049E-3,2.247108705E-2,2.335077323E-2
5.371529792E0,1.307313424E-2,6.115203723E-4,2.384341322E-2,2.719906524E-2
5.381508792E0,1.398597192E-2,6.399303675E-3,2.075042203E-2,2.582902461E-2
5.391486792E0,9.886302054E-3,1.333124563E-2,1.982923411E-2,2.585845323E-2
5.401465792E0,4.080478102E-3,1.745215431E-2,2.007785812E-2,2.691372100E-2
5.411444792E0,2.016261686E-3,1.789610274E-2,1.945041679E-2,2.650763131E-2
5.421423792E0,8.933181874E-3,1.164826006E-2,1.955001988E-2,2.444763747E-2
5.431402792E0,2.087133378E-2,3.793266602E-3,2.437113971E-2,3.231027539E-2
5.441381792E0,3.197171167E-2,2.502298215E-3,2.542485856E-2,4.092524008E-2
5.451360792E0,4.024668783E-2,-3.426697105E-3,2.597746439E-2,4.802464774E-2
5.461339792E0,3.898838162E-2,-7.374433335E-3,2.609319985E-2,4.749032793E-2
5.471317792E0,3.337976709E-2,-7.171234582E-3,2.499251626E-2,4.231147983E-2
5.481296792E0,2.680406533E-2,-1.044412702E-2,1.825932600E-2,3.407257979E-2
5.491275792E0,2.467726544E-2,-1.458613947E-2,1.178491395E-2,3.099366211E-2
5.501254792E0,1.328240708E-2,-1.577084884E-2,1.158558205E-2,2.365095605E-2
5.511233792E0,1.001311000E-2,-9.893784299E-3,1.566181704E-2,2.105805909E-2
5.521212792E0,1.012875140E-2,-1.691448037E-3,1.841256768E-2,2.108258167E-2
5.531191792E0,1.328566298E-2,4.980302881E-3,1.825943589E-2,2.312399742E-2
5.541170792E0,1.409415063E-2,6.882333197E-3,1.509823278E-2,2.177081131E-2
5.551148792E0,1.015932951E-2,9.070386179E-3,1.225397736E-2,1.832058522E-2
5.561127792E0,4.727292340E-3,6.241376512E-3,3.358693561E-3,8.519559617E-3
5.571106792E0,-5.471815355E-3,4.237347748E-3,-5.242251325E-3,8.681997361E-3
5.581085792E0,-1.044636313E-2,1.179506630E-2,-7.840117440E-3,1.759879351E-2
5.591064792E0,-5.465452559E-3,1.844631135E-2,-1.062258799E-2,2.197673656E-2
5.601043792E0,8.555533364E-3,2.279165946E-2,-9.227241389E-3,2.603457078E-2
5.611022792E0,2.097917907E-2,2.102411911E-2,-5.569655914E-3,3.021854738E-2
5.621000792E0,2.728559822E-2,1.581703871E-2,-1.359096030E-3,3.156785906E-2
5.630979792E0,3.296319023E-2,9.326381609E-3,4.874032456E-3,3.460216028E-2
5.640958792E0,3.441435844E-2,1.120184734E-2,4.205253441E-3,3.643506014E-2
5.650937792E0,3.526124358E-2,8.861993439E-3,9.250345640E-3,3.751611815E-2
5.660916792E0,3.193252534E-2,7.872962393E-3,8.449177258E-3,3.395671226E-2
5.670895792E0,3.038735688E-2,9.155807085E-3,1.019621082E-2,3.333441130E-2
5.680874792E0,3.127609193E-2,4.211581312E-3,9.577382356E-3,3.297965428E-2
5.690853792E0,3.261193261E-2,-3.131019883E-3,5.157599691E-3,3.316537755E-2
5.700831792E0,3.424736485E-2,-8.009664714E-3,3.113880055E-3,3.530910615E-2
5.710810792E0,3.460315987E-2,-1.212584600E-2,1.101329224E-3,3.668279897E-2
5.720789792E0,3.204600140E-2,-7.533091586E-3,1.460728003E-3,3.295189526E-2
5.730768792E0,2.448875085E-2,2.416744130E-3,5.306865554E-3,2.517344617E-2
5.740747792E0,1.732055470E-2,1.079904474E-2,9.801726788E-3,2.264276553E-2
5.750726792E0,1.459720451E-2,1.972329617E-2,9.076548740E-3,2.616238766E-2
5.760705792E0,1.466226578E-2,1.891689189E-2,7.418779656E-3,2.505731686E-2
5.770684792E0,7.868543267E-3,2.202693187E-2,4.179044161E-3,2.376055788E-2
5.780662792E0,3.708959324E-3,2.402257174E-2,6.779240211E-4,2.431665917E-2
5.790641792E0,-2.305789851E-3,2.454588376E-2,-1.031292719E-3,2.467550691E-2
5.800620792E0,-5.300611258E-3,1.960998029E-2,-1.727768220E-3,2.038707898E-2
5.810599792E0,-7.361631840E-3,1.460856292E-2,5.769312847E-4,1.636876855E-2
5.820578792E0,-7.111209910E-3,8.379628882E-3,3.459123429E-3,1.152184974E-2
5.830557792E0,-6.755144801E-3,9.931718931E-3,5.070069339E-3,1.303750840E-2
5.840536792E0,-5.913863890E-3,1.233861782E-2,1.148488559E-2,1.786387060E-2
5.850514792E0,-1.770251663E-3,1.413625106E-2,2.051406726E-2,2.497587517E-2
5.860493792E0,6.799203344E-3,1.425609365E-2,2.264934964E-2,2.761264949E-2
5.870472792E0,1.710430533E-2,1.023259014E-2,2.369064465E-2,3.095980952E-2
5.880451792E0,2.469650656E-2,7.115691900E-3,2.379794233E-2,3.502702623E-2
5.890430792E0,2.756686136E-2,2.936127130E-3,2.140695602E-2,3.502585408E-2
5.900409792E0,1.899328083E-2,-1.110545360E-3,1.615675911E-2,2.496034640E-2
5.910388792E0,1.008713804E-2,-5.278392229E-3,1.321742870E-2,1.744454642E-2
5.920367792E0,3.546204418E-3,-1.042348705E-2,1.540804747E-2,1.893759687E-2
5.930345792E0,-3.243258456E-3,-1.423021033E-2,1.593002677E-2,2.160516985E-2
5.940324792E0,-3.864037106E-3,-1.070451736E-2,1.537962072E-2,1.913243864E-2
5.950303792E0,1.130188932E-3,-1.300389133E-2,1.472395007E-2,1.967671777E-2
5.960282792E0,1.182015240E-2,-1.337493397E-2,1.626733877E-2,2.415017955E-2
5.970261792E0,2.006423473E-2,-1.420397684E-2,1.806124486E-2,3.050467242E-2
5.980240792E0,2.546642907E-2,-1.052994654E-2,1.883308031E-2,3.337819194E-2
5.990219792E0,2.393138409E-2,-5.448103417E-3,1.912629418E-2,3.111604255E-2
6.000198333E0,1.827984490E-2,-2.358103637E-3,1.452119462E-2,2.346440869E-2
6.010176333E0,1.442571729E-2,2.449434483E-3,1.165563334E-2,1.870707987E-2
6.020155333E0,7.761157118E-3,3.339196555E-3,9.162914939E-3,1.246373955E-2
6.030134333E0,3.150160424E-3,5.149613600E-3,1.322743110E-2,1.453984060E-2
6.040113333E0,1.558896969E-3,1.126516424E-2,1.369014010E-2,1.779758470E-2
6.050092333E0,3.834301606E-3,1.390275918E-2,1.170368772E-2,1.857323041E-2
6.060071333E0,8.793462068E-3,1.466961578E-2,1.126525179E-2,2.047995361E-2
6.070050333E0,1.415520441E-2,1.052307338E-2,1.028680615E-2,2.041869893E-2
6.080028333E0,1.616291702E-2,1.289322041E-2,7.336331997E-3,2.193847730E-2
6.090007333E0,1.498127356E-2,1.924592443E-2,9.600551799E-3,2.621096640E-2
6.099986333E0,1.100042462E-2,2.608099394E-2,1.192598231E-2,3.071573930E-2
6.109965333E0,1.272402238E-2,3.188828379E-2,1.662326604E-2,3.814572535E-2
6.119944333E0,1.619462669E-2,2.718640491E-2,1.586032100E-2,3.539655814E-2
6.129923333E0,2.296198532E-2,1.505091414E-2,1.027300861E-2,2.931411762E-2
6.139902333E0,2.877958305E-2,6.494111847E-3,5.584264640E-3,3.002701951E-2
6.149881333E0,2.851672843E-2,2.462086035E-3,1.394313411E-3,2.865675798E-2
6.159859333E0,1.916933991E-2,7.412767969E-3,-7.839915925E-4,2.056762904E-2
6.169838333E0,9.983299300E-3,1.901615970E-2,4.252844956E-3,2.189445786E-2
6.179817333E0,1.771708135E-3,2.443569340E-2,9.957069531E-3,2.644589373E-2
6.189796333E0,-5.076344125E-3,1.780255884E-2,1.088411547E-2,2.147473726E-2
6.199775333E0,-6.632945966E-3,5.871064030E-3,6.514411420E-3,1.099558644E-2
6.209754333E0,-5.608161446E-3,-6.480144337E-3,-2.198120113E-3,8.847342960E-3
6.219733333E0,-5.152522586E-3,-1.297592651E-2,-8.778476156E-3,1.649196172E-2
6.229712333E0,-5.904600024E-3,-1.132157072E-2,-8.612294681E-3,1.540174941E-2
6.239690333E0,-2.267197706E-4,-4.639234394E-3,-2.749266336E-3,5.397440412E-3
6.249669333E0,1.152847335E-2,3.158767475E-3,5.016777664E-3,1.296347052E-2
6.259648333E0,2.291458845E-2,3.552315990E-3,1.211259235E-2,2.616127302E-2
6.269627333E0,3.658699244E-2,7.882211357E-4,1.140765380E-2,3.833228240E-2
6.279606333E0,4.219742864E-2,-7.659658790E-3,5.103192292E-3,4.318953494E-2
6.289585333E0,3.361965343E-2,-6.647923961E-3,3.189977258E-3,3.441877315E-2
6.299564333E0,2.066552825E-2,-3.209116869E-3,2.635122743E-3,2.107857587E-2
6.309542333E0,8.387290873E-3,1.398151624E-3,2.744578756E-3,8.934997968E-3
6.319521333E0,-1.890122425E-3,1.602815581E-3,2.273061080E-3,3.362794558E-3
6.329500333E0,-4.690169822E-3,4.826571792E-3,4.909058101E-3,8.330206460E-3
6.339479333E0,-2.505797194E-3,-2.827020362E-4,6.594067439E-3,7.059792165E-3
6.349458333E0,2.991499845E-3,-2.937074751E-3,4.997502547E-3,6.523075281E-3
6.359437333E0,3.654821310E-3,-7.292807568E-3,5.834091455E-3,1.002892737E-2
6.369416333E0,5.077481735E-3,-3.300196491E-3,7.626398932E-3,9.738279023E-3
6.379395333E0,1.354538836E-4,9.467463242E-4,9.343604557E-3,9.392423674E-3
6.389373333E0,-4.231864121E-3,8.708529174E-3,1.201901678E-2,1.543385625E-2
6.399352333E0,-8.425015025E-3,1.422853023E-2,1.414494868E-2,2.176031994E-2
6.409331333E0,-1.205197442E-2,9.799692780E-3,1.211295743E-2,1.969791369E-2
6.419310333E0,-1.447173022E-2,2.236715518E-3,1.712042431E-4,1.464456154E-2
6.429289333E0,-1.900283247E-2,-1.879199874E-3,-1.070514601E-2,2.189153227E-2
6.439268333E0,-2.294642106E-2,-6.859911606E-3,-1.423455309E-2,2.786070940E-2
6.449247333E0,-2.873213962E-2,-5.888656713E-3,-1.342042442E-2,3.225399071E-2
6.459226333E0,-3.212688863E-2,4.753136542E-3,-5.826234818E-3,3.299506467E-2
6.469204333E0,-2.851191722E-2,1.321825944E-2,2.095870674E-3,3.149673761E-2
6.479183333E0,-1.742577180E-2,1.333430968E-2,6.771338172E-3,2.296328283E-2
6.489162333E0,-5.672975443E-3,1.077155024E-2,1.484764088E-2,1.920055688E-2
6.499141333E0,1.105915383E-2,1.080290787E-2,1.529673114E-2,2.174850996E-2
6.509120333E0,2.308838628E-2,5.698426627E-3,1.396381948E-2,2.757777913E-2
6.519099333E0,2.922165021E-2,2.427199157E-3,1.171431690E-2,3.157564500E-2
6.529078333E0,2.935560793E-2,-2.324945293E-3,3.055847716E-3,2.960566319E-2
6.539057333E0,3.012293391E-2,-9.302230552E-3,-1.342515461E-3,3.155511034E-2
6.549035333E0,3.544552624E-2,-9.656164795E-3,-9.329211316E-4,3.674911143E-2
6.559014333E0,3.876490518E-2,-1.117303409E-2,1.949092606E-3,4.039001766E-2
6.568993333E0,4.421027005E-2,-1.067875139E-2,3.184266621E-3,4.559301770E-2
6.578972333E0,4.426458105E-2,-8.012128063E-3,4.123819992E-3,4.517248303E-2
6.588951333E0,3.844450787E-2,-6.978289224E-3,4.077214748E-3,3.928486204E-2
6.598930333E0,3.141331673E-2,-6.107034162E-3,5.806320347E-3,3.252392489E-2
6.608909333E0,2.503797784E-2,-6.964305416E-3,1.001171861E-2,2.785024944E-2
6.618887333E0,2.016855031E-2,-1.155786030E-2,1.457485184E-2,2.743685227E-2
6.628866333E0,1.649418660E-2,-1.694516838E-2,1.387630496E-2,2.741803717E-2
6.638845333E0,1.100227609E-2,-2.067752182E-2,1.066183951E-2,2.573489479E-2
6.648824333E0,6.551867817E-3,-2.409169450E-2,6.606378127E-3,2.582597429E-2
6.658803333E0,3.305135760E-3,-1.911198348E-2,1.478550024E-3,1.945193936E-2
6.668782333E0,1.939466805E-3,-8.511003107E-3,-3.599565243E-3,9.442223007E-3
6.678761333E0,2.270288300E-3,3.277078271E-3,-8.215188049E-3,9.131416409E-3
6.688740333E0,2.421289450E-3,1.660832949E-2,-1.205200423E-2,2.066276983E-2
6.698718333E0,3.204763401E-3,2.866412699E-2,-1.226846874E-2,3.134354814E-2
6.708697333E0,6.513740867E-3,3.983875364E-2,-8.447897620E-3,4.124223667E-2
6.718676333E0,1.286491100E-2,4.401911423E-2,-2.094357973E-3,4.590832917E-2
6.728655333E0,1.779229194E-2,4.633500054E-2,6.853064056E-3,5.010451492E-2
6.738634333E0,1.789741032E-2,3.390143439E-2,1.140389591E-2,3.999591719E-2
6.748613333E0,1.705798134E-2,1.086615585E-2,6.254673935E-3,2.117000275E-2
6.758592333E0,1.546083950E-2,-7.788021583E-3,8.077461971E-4,1.733041523E-2
6.768571333E0,1.144559123E-2,-1.277958415E-2,-7.433938794E-3,1.869713282E-2
6.778549333E0,8.813153952E-3,-1.122696325E-2,-8.784897625E-3,1.675979751E-2
6.788528333E0,7.736970671E-3,-5.920348223E-3,7.252508076E-4,9.769197868E-3
6.798507333E0,1.013030577E-2,2.970676869E-4,6.869933102E-3,1.224366469E-2
6.808486333E0,1.102219801E-2,6.045500748E-3,1.140023675E-2,1.697063129E-2
6.818465333E0,1.473782398E-2,-3.581825644E-3,1.324925851E-2,2.013891213E-2
6.828444333E0,1.517005451E-2,-1.355003752E-2,1.092511788E-2,2.308879103E-2
6.838423333E0,1.225916576E-2,-1.965100504E-2,6.771280896E-3,2.413088041E-2
6.848401333E0,5.224691704E-3,-1.978096738E-2,2.635125536E-3,2.062832908E-2
6.858380333E0,-2.564196941E-3,-1.234315988E-2,-1.570897177E-3,1.270418906E-2
6.868359333E0,-8.129404858E-3,-5.714551546E-3,-2.895287238E-3,1.035016961E-2
6.878338333E0,-1.220264472E-2,1.388897537E-3,-7.583273691E-4,1.230482161E-2
6.888317333E0,-5.675237626E-3,6.922679953E-3,4.112860654E-3,9.851266041E-3
6.898296333E0,1.976016909E-3,7.572357543E-3,8.850486018E-3,1.181424328E-2
6.908275333E0,1.149388868E-2,6.469542626E-3,1.295361854E-2,1.848677073E-2
6.918254333E0,1.268935762E-2,2.683459781E-3,1.817140356E-2,2.232533674E-2
6.928232333E0,8.653337136E-3,-1.440179069E-3,1.838259213E-2,2.036845730E-2
6.938211333E0,-1.361997100E-3,-5.916952621E-3,1.191191841E-2,1.337008469E-2
6.948190333E0,-8.355724625E-3,-1.095565408E-2,8.498811163E-3,1.618870846E-2
6.958169333E0,-1.456596889E-2,-1.710615680E-2,5.101338029E-3,2.303935111E-2
6.968148333E0,-1.707466692E-2,-1.571731828E-2,3.341521136E-3,2.344662252E-2
6.978127333E0,-1.642143168E-2,-1.306154765E-2,1.036198926E-3,2.100812113E-2
6.988106333E0,-1.746219397E-2,-1.127376780E-2,-5.630292580E-4,2.079286080E-2
6.998085583E0,-2.195972390E-2,-6.908047944E-3,-3.193391603E-4,2.302287076E-2
7.008063583E0,-2.304762602E-2,5.714004394E-3,3.649569815E-3,2.402420178E-2
7.018042583E0,-2.321590111E-2,1.673889160E-2,8.683299646E-3,2.990933381E-2
7.028021583E0,-2.112159133E-2,2.043136396E-2,1.239920780E-2,3.189518157E-2
7.038000583E0,-1.590122283E-2,1.504711900E-2,1.121851802E-2,2.459918340E-2
7.047979583E0,-1.233471837E-2,4.925242625E-3,7.558269426E-3,1.528171224E-2
7.057958583E0,-1.458303817E-2,-1.918282360E-3,5.233548582E-3,1.561200948E-2
7.067937583E0,-2.224495262E-2,-2.143851947E-3,6.876186468E-3,2.338195797E-2
7.077916583E0,-2.918485738E-2,2.158550546E-3,4.452128429E-3,2.960129539E-2
7.087894583E0,-3.084853105E-2,5.911211018E-3,5.521387793E-3,3.189137825E-2
7.097873583E0,-2.837371081E-2,4.746145569E-3,4.768144339E-3,2.916039375E-2
7.107852583E0,-1.839298010E-2,-8.329104166E-4,5.165221635E-3,1.912262982E-2
7.117831583E0,-5.857389886E-3,-2.201709431E-3,3.958268557E-3,7.404352143E-3
7.127810583E0,4.857040010E-3,-1.387847587E-3,1.280193683E-3,5.211127945E-3
7.137789583E0,1.121801604E-2,6.511621177E-3,8.255287074E-3,1.537513768E-2
7.147768583E0,1.444257144E-2,9.018987417E-3,1.257173903E-2,2.116550557E-2
7.157746583E0,1.548001729E-2,7.921632379E-3,1.506371703E-2,2.300649399E-2
7.167725583E0,1.859458536E-2,3.522889689E-3,1.375956740E-2,2.339861217E-2
7.177704583E0,2.133612521E-2,1.841101795E-3,1.072574593E-2,2.395123213E-2
7.187683583E0,2.242402732E-2,-8.090143092E-5,9.086037986E-3,2.419503322E-2
7.197662583E0,2.156619914E-2,-7.502199616E-3,1.018657535E-2,2.500300506E-2
7.207641583E0,2.094701305E-2,-7.460387889E-3,9.047275409E-3,2.400599791E-2
7.217620583E0,1.537247561E-2,-9.185450152E-3,6.674526725E-3,1.911111739E-2
7.227599583E0,1.030634437E-2,-9.154291824E-3,8.116894402E-3,1.599705497E-2
7.237577583E0,6.775800139E-3,-7.950142026E-3,7.965498604E-3,1.313641480E-2
7.247556583E0,9.015784599E-3,-7.845479995E-3,1.147501264E-2,1.656839894E-2
7.257535583E0,9.946857579E-3,-5.768214818E-3,1.336321235E-2,1.762917247E-2
7.267514583E0,7.844292559E-3,-5.302960519E-3,1.715315878E-2,1.959298783E-2
7.277493583E0,3.837017808E-3,-7.297934499E-3,1.563514583E-2,1.767598197E-2
7.287472583E0,-8.709183894E-4,-8.428979665E-3,1.377972122E-2,1.617673991E-2
7.297451583E0,-4.800715018E-3,-8.314397186E-3,1.027304772E-2,1.406099480E-2
7.307430583E0,-6.614327896E-3,-8.706679568E-3,1.293301303E-2,1.693571459E-2
7.317408583E0,-6.371951662E-3,-9.272269905E-3,1.577349380E-2,1.937472229E-2
7.327387583E0,-5.771675147E-3,-6.587003823E-3,1.853971928E-2,2.050419578E-2
7.337366583E0,-5.852087401E-3,-5.499635357E-3,1.550132688E-2,1.745806550E-2
7.347345583E0,-3.884543432E-3,-5.499102641E-3,1.482009050E-2,1.627774216E-2
7.357324583E0,-4.959181882E-3,-3.122430760E-3,8.199105971E-3,1.007811478E-2
7.367303583E0,-5.513119046E-3,-8.512868080E-4,6.121308077E-3,8.281882842E-3
7.377282583E0,-2.171065426E-3,3.728750395E-3,9.419998154E-3,1.036115195E-2
7.387260583E0,9.176686872E-4,1.273635961E-2,2.046732418E-2,2.412401980E-2
7.397239583E0,4.940898158E-3,2.080986649E-2,3.414731100E-2,4.029270240E-2
7.407218583E0,8.368652314E-3,1.967882179E-2,3.904353082E-2,4.451615064E-2
7.417197583E0,3.516941331E-3,1.088925824E-2,3.708646446E-2,3.881173363E-2
7.427176583E0,-7.791639306E-3,-3.024426289E-3,3.326189891E-2,3.429592857E-2
7.437155583E0,-2.121587470E-2,-2.309494093E-2,2.903637104E-2,4.273874681E-2
7.447134583E0,-3.156252205E-2,-3.662326559E-2,2.575695515E-2,5.478026214E-2
7.457113583E0,-3.645528853E-2,-4.095962644E-2,2.261142619E-2,5.931235667E-2
7.467091583E0,-3.460092843E-2,-3.149155527E-2,2.645596489E-2,5.374811978E-2
7.477070583E0,-2.719922736E-2,-2.205078118E-2,3.364608437E-2,4.856020915E-2
7.487049583E0,-1.575881988E-2,-7.745611481E-3,3.944911435E-2,4.318063830E-2
7.497028583E0,1.522977022E-3,6.273866631E-3,4.439561069E-2,4.486258029E-2
7.507007583E0,1.729128882E-2,1.355095487E-2,4.685051367E-2,5.174541214E-2
7.516986583E0,2.966609783E-2,1.592782885E-2,4.889175296E-2,5.936477575E-2
7.526965583E0,3.384752572E-2,1.221458428E-2,4.476012662E-2,5.743100209E-2
7.536944583E0,2.404855564E-2,6.703767926E-3,3.983569518E-2,4.701229779E-2
7.546922583E0,1.208803151E-2,-4.236502573E-4,3.414638340E-2,3.622534313E-2
7.556901583E0,-1.029114006E-3,-1.571006607E-3,3.195652738E-2,3.201166631E-2
7.566880583E0,-8.557870984E-3,2.431990812E-3,3.155785054E-2,3.278795001E-2
7.576859583E0,-9.597838856E-3,-7.664551958E-6,3.059371933E-2,3.206390856E-2
7.586838583E0,-7.097929716E-3,-4.150744062E-3,2.667540871E-2,2.791391610E-2
7.596817583E0,-9.892941453E-3,-4.729315639E-3,2.259156853E-2,2.511206255E-2
7.606796583E0,-1.406052150E-2,-9.521407075E-3,2.346561849E-2,2.896533633E-2
7.616775583E0,-1.723842323E-2,-7.815653458E-3,2.608167194E-2,3.222578603E-2
7.626753583E0,-1.865602471E-2,-8.991438895E-3,2.748649009E-2,3.441511831E-2
7.636732583E0,-1.736092940E-2,-1.088974066E-2,3.320349380E-2,3.901871759E-2
7.646711583E0,-1.711858064E-2,-1.775483601E-2,3.627838194E-2,4.386799518E-2
7.656690583E0,-1.502697542E-2,-3.358719498E-2,2.660908550E-2,4.540873361E-2
7.666669583E0,-1.866192371E-2,-4.544278979E-2,2.008940093E-2,5.307446251E-2
7.676648583E0,-3.423557803E-2,-5.237093568E-2,2.122169733E-2,6.606928291E-2
7.686627583E0,-5.130936950E-2,-4.209379852E-2,2.790489979E-2,7.199460192E-2
7.696605583E0,-6.306446344E-2,-3.366143256E-2,3.465047479E-2,7.944100952E-2
7.706584583E0,-6.977190077E-2,-1.913628355E-2,3.714026511E-2,8.132474886E-2
7.716563583E0,-6.664399058E-2,-7.904134691E-3,3.476953506E-2,7.558318195E-2
7.726542583E0,-5.638629198E-2,-3.438013140E-3,3.001020104E-2,6.396753883E-2
7.736521583E0,-4.559521005E-2,-2.123479266E-3,2.386306971E-2,5.150610099E-2
7.746500583E0,-3.152413294E-2,-3.944282420E-3,1.892583445E-2,3.697993416E-2
7.756479583E0,-2.103451453E-2,-5.959363654E-3,1.232476812E-2,2.509710593E-2
7.766458583E0,-1.164980046E-2,-5.507691763E-3,3.033265471E-3,1.323832387E-2
7.776436583E0,-8.892316371E-3,-2.466893289E-3,-4.010768607E-3,1.006206330E-2
7.786415583E0,-5.230469629E-3,-1.074059866E-3,-7.366884500E-3,9.098483630E-3
7.796394583E0,-1.891958294E-3,5.067654885E-3,-7.382012904E-3,9.151761947E-3
7.806373583E0,3.700147383E-3,5.046349019E-3,-9.246758185E-3,1.116509140E-2
7.816352583E0,1.177558582E-2,8.860530332E-3,-7.013471797E-3,1.632060679E-2
7.826331583E0,1.739831828E-2,1.623295806E-2,-6.986307446E-3,2.479957455E-2
7.836310583E0,2.084561810E-2,2.515441552E-2,-8.078454412E-4,3.267930581E-2
7.846289583E0,2.238865383E-2,2.979763597E-2,2.065172652E-3,3.732848601E-2
7.856267583E0,2.643263526E-2,3.072062135E-2,7.024829742E-3,4.113136292E-2
7.866246583E0,2.535458840E-2,2.847211435E-2,9.660294279E-3,3.932985805E-2
7.876225583E0,2.195446752E-2,2.475966699E-2,1.020274032E-2,3.462853829E-2
7.886204583E0,2.043912746E-2,2.094469033E-2,8.742795326E-3,3.054299354E-2
7.896183583E0,2.225279622E-2,1.100217737E-2,6.872891914E-3,2.575794032E-2
7.906162583E0,2.781853639E-2,8.699139580E-4,3.411847632E-3,2.804047826E-2
7.916141583E0,2.979856171E-2,-6.010829005E-3,-1.683400013E-3,3.044533102E-2
7.926120583E0,2.633591928E-2,-8.852155879E-3,-5.532732699E-3,2.832935649E-2
7.936098583E0,1.762675866E-2,-1.664679963E-3,-7.487689611E-3,1.922340438E-2
7.946077583E0,1.567892358E-2,1.067454368E-2,-1.110772323E-2,2.198081078E-2
7.956056583E0,2.198648453E-2,1.721153595E-2,-1.463819016E-2,3.152648224E-2
7.966035583E0,2.875544131E-2,3.215719759E-2,-1.276199333E-2,4.498698963E-2
7.976014583E0,2.555033006E-2,4.986555129E-2,-1.222156920E-2,5.734770549E-2
7.985993583E0,1.658692956E-2,5.357187241E-2,-7.643595338E-3,5.659943724E-2
7.995972583E0,2.568692435E-4,4.830773920E-2,-5.433626473E-3,4.861304295E-2
8.005951083E0,-1.873413101E-2,3.617144749E-2,-2.150481334E-3,4.079173749E-2
8.015930083E0,-3.390663117E-2,1.594293863E-2,1.832194394E-4,3.746825988E-2
8.025909083E0,-5.167417601E-2,-1.619635522E-2,-2.155302325E-3,5.419582748E-2
8.035888083E0,-5.936728418E-2,-2.945489995E-2,-6.894151215E-3,6.663028503E-2
8.045867083E0,-5.863811076E-2,-4.052779078E-2,-1.448735595E-2,7.273797730E-2
8.055846083E0,-5.189718679E-2,-3.257552534E-2,-2.030461468E-2,6.455044713E-2
8.065825083E0,-3.343588859E-2,-1.395736635E-2,-1.809206046E-2,4.049801690E-2
8.075804083E0,-1.017394662E-2,5.106405355E-3,-1.141449530E-2,1.612064727E-2
8.085782083E0,1.106023602E-2,2.337995172E-2,-2.710486297E-3,2.600572435E-2
8.095761083E0,2.515023947E-2,3.543901071E-2,1.806246466E-3,4.349391396E-2
8.105740083E0,3.372668102E-2,3.411621600E-2,1.109297154E-3,4.798578693E-2
8.115719083E0,3.683866188E-2,2.497152053E-2,-2.360553946E-3,4.456720837E-2
8.125698083E0,2.820256539E-2,9.059134871E-3,-8.296740241E-3,3.076180290E-2
8.135677083E0,1.648514904E-2,1.054870198E-3,-9.761102498E-3,1.918728777E-2
8.145656083E0,-9.234026074E-4,4.682894796E-3,-1.245089527E-2,1.333442796E-2
8.155635083E0,-1.258406136E-2,1.995959319E-4,-6.342807785E-3,1.409360314E-2
8.165613083E0,-1.344426349E-2,-2.864903305E-3,-7.152821054E-4,1.376472013E-2
8.175592083E0,-8.951235563E-3,-6.433405913E-3,4.322757944E-3,1.184058977E-2
8.185571083E0,2.454586793E-4,-1.194881275E-2,7.247707807E-3,1.397725455E-2
8.195550083E0,5.455925129E-3,-9.720679373E-3,6.731981412E-3,1.302222332E-2
8.205529083E0,4.072146490E-3,-5.450033583E-3,8.768767118E-3,1.109849178E-2
8.215508083E0,5.555340555E-3,2.423336729E-3,1.043035928E-2,1.206344745E-2
8.225487083E0,5.501544569E-3,1.101522706E-2,9.817033075E-3,1.574726511E-2
8.235466083E0,5.775536411E-3,1.449810807E-2,1.013871655E-2,1.861036087E-2
8.245444083E0,6.456773262E-3,1.324136183E-2,5.182574503E-3,1.561674302E-2
8.255423083E0,5.274767987E-3,1.048998535E-2,2.245714713E-4,1.174365370E-2
8.265402083E0,4.664904438E-3,4.448072053E-3,-6.902580149E-3,9.444167043E-3
8.275381083E0,3.253789386E-3,4.606861155E-3,-1.078121271E-2,1.216736876E-2
8.285360083E0,-9.372271597E-4,3.997796215E-3,-7.899405435E-3,8.902885799E-3
8.295339083E0,-4.536879715E-3,8.592952043E-3,-4.653763026E-3,1.077402491E-2
8.305318083E0,-6.491640117E-3,1.439651195E-2,-2.708057174E-3,1.602293735E-2
8.315297083E0,-7.824480534E-3,1.595971733E-2,-1.086940174E-4,1.777489486E-2
8.325275083E0,-6.720334291E-3,1.859225333E-2,1.962979091E-3,1.986675775E-2
8.335254083E0,-9.170135483E-3,2.414534241E-2,5.435900297E-3,2.639389999E-2
8.345233083E0,-1.394145377E-2,2.393681556E-2,8.874573745E-3,2.908768350E-2
8.355212083E0,-1.009241678E-2,2.273140475E-2,1.002324373E-2,2.681490356E-2
8.365191083E0,-2.981776372E-3,1.147954911E-2,5.622636527E-3,1.312574111E-2
8.375170083E0,-9.285036940E-4,-1.184714027E-3,8.823263925E-4,1.744753936E-3
8.385149083E0,-3.505112138E-3,-8.444757201E-3,-1.772845164E-3,9.313576931E-3
8.395127083E0,-4.932267591E-3,-1.560333557E-2,-1.445666421E-4,1.636497003E-2
8.405106083E0,-2.320541535E-4,-1.804172620E-2,-1.151774079E-3,1.807994239E-2
8.415085083E0,9.053036571E-3,-1.308205351E-2,-2.649349626E-3,1.612813221E-2
8.425064083E0,1.455725729E-2,-8.717665449E-3,-1.451459713E-3,1.702991973E-2
8.435043083E0,2.129859664E-2,-1.236313488E-3,1.455695950E-3,2.138405341E-2
8.445022083E0,2.442807704E-2,5.972863175E-3,3.407260403E-3,2.537745980E-2
8.455001083E0,2.719164453E-2,1.326453127E-2,7.511260454E-3,3.117294269E-2
8.464980083E0,2.185786515E-2,1.767019928E-2,8.040163666E-3,2.923433672E-2
8.474958083E0,1.358873863E-2,2.150508389E-2,2.421753248E-3,2.555361695E-2
8.484937083E0,1.788537949E-3,2.100361139E-2,-4.409521352E-3,2.153588721E-2
8.494916083E0,-7.749871351E-3,2.170775086E-2,-7.647677325E-3,2.428526141E-2
8.504895083E0,-9.960827418E-3,1.531190239E-2,-9.401901625E-3,2.054429828E-2
8.514874083E0,-5.045419559E-3,8.258054964E-3,-1.846789382E-2,2.084981613E-2
8.524853083E0,1.866548788E-3,1.244886662E-3,-2.082372643E-2,2.094424335E-2
8.534832083E0,7.308209781E-3,6.033916492E-3,-1.578967273E-2,1.841553267E-2
8.544811083E0,7.763876580E-3,8.246203884E-3,-1.610445790E-2,1.968835245E-2
8.554789083E0,1.018519886E-2,1.622596756E-2,-2.142293751E-2,2.873956420E-2
8.564768083E0,9.075193666E-3,1.867021620E-2,-2.542380430E-2,3.282233901E-2
8.574747083E0,3.045202931E-3,2.374959737E-2,-2.838228084E-2,3.713314560E-2
8.584726083E0,3.569313092E-3,2.675364166E-2,-3.848791495E-2,4.700869000E-2
8.594705083E0,3.542996943E-3,2.535894327E-2,-4.127248377E-2,4.857001902E-2
8.604684083E0,-2.376267221E-4,2.670703642E-2,-4.212655872E-2,4.987954702E-2
8.614663083E0,-4.458777606E-3,3.205985948E-2,-4.324604198E-2,5.401791772E-2
8.624642083E0,-7.733667269E-3,3.432967141E-2,-4.186625779E-2,5.469112807E-2
8.634620083E0,-1.404585503E-2,3.025363572E-2,-4.543693736E-2,5.636562600E-2
8.644599083E0,-1.833487488E-2,2.442823723E-2,-4.788598046E-2,5.679765431E-2
8.654578083E0,-2.436933480E-2,2.433562465E-2,-5.169623345E-2,6.211753101E-2
8.664557083E0,-2.634247206E-2,2.646455728E-2,-5.271356180E-2,6.459890265E-2
8.674536083E0,-2.559066191E-2,3.866662830E-2,-3.941719607E-2,6.085807643E-2
8.684515083E0,-1.596919261E-2,4.319852963E-2,-2.389230020E-2,5.188419879E-2
8.694494083E0,-6.511258893E-3,3.469931334E-2,-1.428575441E-2,3.808571409E-2
8.704472083E0,3.600496799E-3,2.677241713E-2,-6.065907888E-3,2.768611808E-2
8.714451083E0,1.026516035E-2,1.413239166E-2,-1.791343209E-3,1.755867084E-2
8.724430083E0,1.361568272E-2,-2.117152326E-3,1.069690799E-3,1.382075933E-2
8.734409083E0,9.943330660E-3,-1.837082580E-2,2.865258139E-3,2.108475206E-2
8.744388083E0,4.441018682E-4,-2.294453792E-2,5.620830692E-3,2.362716201E-2
8.754367083E0,-4.066171125E-3,-1.939094998E-2,5.529386923E-3,2.056980332E-2
8.764346083E0,7.821137551E-4,-1.840957627E-2,6.395447068E-3,1.950451085E-2
8.774325083E0,1.293838210E-2,-1.195094362E-2,1.220972836E-2,2.143138473E-2
8.784303083E0,2.481661364E-2,-1.034665480E-2,1.495012175E-2,3.076400037E-2
8.794282083E0,3.320736066E-2,-9.626934305E-3,1.305510290E-2,3.695730479E-2
8.804261083E0,3.371815756E-2,-5.625268444E-3,7.056066301E-3,3.490481150E-2
8.814240083E0,2.889787778E-2,1.490030671E-3,8.641107706E-4,2.894916612E-2
8.824219083E0,2.636920288E-2,6.379328202E-3,-9.803946596E-4,2.714759405E-2
8.834198083E0,2.547898889E-2,1.150165405E-2,-5.437416025E-3,2.847863082E-2
8.844177083E0,2.542945370E-2,1.157409139E-2,-7.620942313E-3,2.896023945E-2
8.854156083E0,1.948151551E-2,7.749325130E-3,-1.174439956E-2,2.403148783E-2
8.864134083E0,1.331363339E-2,9.393294342E-3,-1.776900142E-2,2.410859233E-2
8.874113083E0,2.033599187E-3,5.076778121E-3,-2.343132347E-2,2.406109144E-2
8.884092083E0,-1.709473785E-3,7.233938668E-3,-2.551418170E-2,2.657490616E-2
8.894071083E0,-6.156297401E-3,8.797213435E-3,-2.365005203E-2,2.597336949E-2
8.904050083E0,-6.319282576E-3,1.358717494E-2,-2.078102902E-2,2.562022291E-2
8.914029083E0,-5.520289298E-3,1.805495843E-2,-1.689657941E-2,2.533672263E-2
8.924008083E0,-3.572719637E-3,1.892261580E-2,-1.273192838E-2,2.308531383E-2
8.933986083E0,-2.415822120E-3,1.550411712E-2,-5.238779355E-3,1.654263139E-2
8.943965083E0,-1.797702396E-3,8.252861910E-3,1.399149769E-3,8.561488403E-3
8.953944083E0,2.857236890E-3,1.229573507E-3,4.933697172E-3,5.832411288E-3
8.963923083E0,9.278916754E-3,-1.246093865E-2,4.678033292E-3,1.622520520E-2
8.973902083E0,8.086154237E-3,-2.288168669E-2,1.096718130E-3,2.429321442E-2
8.983881083E0,1.220258535E-3,-3.216147050E-2,-1.913985354E-3,3.224147260E-2
8.993860083E0,-8.808493614E-3,-3.560906649E-2,-3.984509036E-3,3.689812310E-2
9.003839208E0,-1.915434189E-2,-2.862466313E-2,-5.872690585E-3,3.493921360E-2
9.013817208E0,-2.664579824E-2,-1.708758250E-2,-5.232989322E-3,3.208376874E-2
9.023796208E0,-2.682103403E-2,-1.043420658E-2,-4.361602943E-3,2.910780159E-2
9.033775208E0,-1.913308166E-2,-7.230755407E-3,-6.084908266E-3,2.133974569E-2
9.043754208E0,-1.069938391E-2,-8.011328056E-3,-4.027349874E-3,1.395986176E-2
9.053733208E0,-4.624905996E-3,-6.125411950E-3,-8.769161068E-4,7.725244908E-3
9.063712208E0,2.278007101E-3,-8.888379671E-4,-1.539244317E-3,2.889398268E-3
9.073691208E0,7.039465010E-3,3.293789690E-3,-1.798774116E-3,7.977387196E-3
9.083670208E0,6.657301448E-3,3.522555111E-3,-3.925042227E-3,8.493174528E-3
9.093648208E0,5.870280322E-3,-6.534133572E-4,-1.241217367E-2,1.374587921E-2
9.103627208E0,4.452945665E-3,-2.395120915E-3,-1.816726476E-2,1.885775273E-2
9.113606208E0,8.451735601E-3,-4.032499623E-3,-1.900366135E-2,2.118565629E-2
9.123585208E0,1.334982086E-2,-9.007550776E-3,-1.779645123E-2,2.400140338E-2
9.133564208E0,1.660824195E-2,-6.284402218E-3,-1.672989689E-2,2.439706666E-2
9.143543208E0,1.789481565E-2,-2.838538028E-3,-1.387658715E-2,2.282194988E-2
9.153522208E0,1.869188435E-2,2.225729404E-3,-1.613495499E-2,2.479268409E-2
9.163501208E0,1.978457905E-2,3.247584216E-3,-1.657943614E-2,2.601641932E-2
9.173479208E0,1.734800078E-2,2.608758630E-3,-1.558138244E-2,2.346355112E-2
9.183458208E0,1.498870645E-2,-2.301844303E-3,-1.690843515E-2,2.271244125E-2
9.193437208E0,9.648850188E-3,-5.987393204E-3,-2.376045287E-2,2.633454590E-2
9.203416208E0,6.504721940E-3,-7.047331426E-3,-3.104073741E-2,3.248851592E-2
9.213395208E0,1.363239135E-3,-2.027538605E-3,-3.199946508E-2,3.209260194E-2
9.223374208E0,-5.779359024E-3,4.539017566E-3,-2.637300640E-2,2.737771243E-2
9.233353208E0,-9.485425428E-3,1.120617427E-2,-1.363744307E-2,2.003825069E-2
9.243332208E0,-1.428950205E-2,1.579480059E-2,-8.473840542E-3,2.292316663E-2
9.253310208E0,-1.371798664E-2,8.146468550E-3,-7.106839679E-3,1.746583172E-2
9.263289208E0,-1.242662035E-2,-1.513082534E-3,-1.280999929E-2,1.791106903E-2
9.273268208E0,-1.252168417E-2,-1.168176346E-2,-1.295227185E-2,2.147131850E-2
9.283247208E0,-9.688081220E-3,-1.865232177E-2,-7.938338444E-3,2.246742625E-2
9.293226208E0,-8.101392537E-3,-1.683964208E-2,-2.824416850E-3,1.889929726E-2
9.303205208E0,-3.111427883E-3,-1.945992559E-2,2.304952359E-4,1.970844529E-2
9.313184208E0,5.782961380E-3,-2.096747421E-2,-1.074542524E-3,2.177687440E-2
9.323162208E0,1.265338436E-2,-1.616126858E-2,5.997868720E-4,2.053422709E-2
9.333141208E0,1.833655313E-2,-1.068074815E-2,1.958787441E-3,2.131066423E-2
9.343120208E0,2.030888945E-2,-2.326346003E-4,6.346635637E-4,2.032013551E-2
9.353099208E0,1.679486968E-2,1.360055618E-2,3.371407744E-3,2.187256652E-2
9.363078208E0,9.014710784E-3,2.258552797E-2,5.463320762E-3,2.492426444E-2
9.373057208E0,5.499100313E-3,2.449481562E-2,6.375137717E-3,2.590132192E-2
9.383036208E0,4.319586325E-3,2.183245309E-2,1.075497270E-2,2.471809603E-2
9.393015208E0,5.996304099E-4,1.391654089E-2,1.329472940E-2,1.925563546E-2
9.402993208E0,-9.455354884E-4,-3.038740251E-3,1.420872565E-2,1.456076455E-2
9.412972208E0,7.810161915E-4,-1.730862446E-2,1.515775919E-2,2.302077607E-2
9.422951208E0,-7.260667626E-4,-2.942973562E-2,1.598467119E-2,3.349845108E-2
9.432930208E0,-5.040891469E-3,-2.700379491E-2,1.638196595E-2,3.198412629E-2
9.442909208E0,-1.093686372E-2,-1.468960568E-2,1.996152103E-2,2.708988418E-2
9.452888208E0,-9.479832835E-3,-2.726152539E-3,2.030427940E-2,2.257349996E-2
9.462867208E0,-1.302863238E-3,6.370939314E-3,2.548412792E-2,2.630070525E-2
9.472846208E0,8.489031345E-3,9.693232365E-3,2.797763608E-2,3.080211888E-2
9.482824208E0,1.044672076E-2,1.231058687E-2,3.018939123E-2,3.423571039E-2
9.492803208E0,1.313116681E-2,1.339935325E-2,2.438415214E-2,3.076616786E-2
9.502782208E0,1.313169952E-2,1.020782255E-2,2.129488625E-2,2.702060980E-2
9.512761208E0,1.033486798E-2,8.494011126E-3,1.674628630E-2,2.143352109E-2
9.522740208E0,8.774522692E-3,4.741084762E-3,1.555611938E-2,1.847871704E-2
9.532719208E0,8.227802813E-3,3.040588927E-4,1.226280350E-2,1.477042791E-2
9.542698208E0,6.621117704E-3,-8.986378089E-3,1.164867915E-2,1.613337896E-2
9.552677208E0,4.724657629E-3,-9.115409106E-3,1.437401120E-2,1.766423706E-2
9.562655208E0,3.037012415E-3,-1.095538773E-2,1.951977238E-2,2.258905661E-2
9.572634208E0,2.122974955E-3,-7.381024770E-3,2.038380876E-2,2.178270435E-2
9.582613208E0,4.034059122E-3,-5.374599248E-3,1.722956076E-2,1.849372094E-2
9.592592208E0,1.097982470E-2,-2.568293363E-3,1.731330156E-2,2.066163334E-2
9.602571208E0,1.780577376E-2,-2.496121451E-3,1.449647546E-2,2.309597373E-2
9.612550208E0,1.773470268E-2,-2.798723988E-3,1.360999979E-2,2.252963891E-2
9.622529208E0,1.462253369E-2,-1.174994744E-3,1.304967050E-2,1.963397576E-2
9.632508208E0,1.105661318E-2,1.212995732E-3,1.155733224E-2,1.604032363E-2
9.642486208E0,9.507718496E-3,1.192489406E-3,6.308507640E-3,1.147240213E-2
9.652465208E0,6.190421060E-3,3.456442850E-3,3.591512796E-3,7.947784234E-3
9.662444208E0,7.873805240E-3,2.119003329E-3,3.001121222E-4,8.159476169E-3
9.672423208E0,9.174481034E-3,-3.995947540E-3,-4.586197436E-3,1.100781113E-2
9.682402208E0,1.532238722E-2,-1.038753428E-2,-6.534299813E-3,1.963093203E-2
9.692381208E0,1.664330438E-2,-1.574108750E-2,-4.969634116E-3,2.344096157E-2
9.702360208E0,1.355856378E-2,-1.310455706E-2,-1.721110428E-3,1.893479043E-2
9.712338208E0,9.342038073E-3,-8.613802493E-3,9.752435144E-4,1.274450347E-2
9.722317208E0,5.430653226E-3,-7.646679878E-4,2.191720996E-4,5.488601643E-3
9.732296208E0,-3.907070495E-4,4.345472902E-3,5.890065338E-3,7.329983386E-3
9.742275208E0,-6.480025128E-3,1.541543473E-2,9.015550837E-3,1.899753959E-2
9.752254208E0,-5.665971898E-3,2.224664204E-2,6.894365419E-3,2.396974330E-2
9.762233208E0,-2.379172947E-4,1.116070151E-2,5.178757012E-3,1.230598989E-2
9.772212208E0,5.591532215E-3,-3.536087461E-4,-1.115457155E-3,5.712662805E-3
9.782191208E0,1.889205538E-3,-2.095316071E-3,-2.806032076E-3,3.979103293E-3
9.792169208E0,-5.944502540E-3,-3.329358995E-3,-3.927833401E-3,7.864452746E-3
9.802148208E0,-1.370628458E-2,-2.336798701E-3,-1.141477842E-2,1.798944222E-2
9.812127208E0,-1.927206479E-2,-2.364361659E-3,-1.480167918E-2,2.441500346E-2
9.822106208E0,-1.634711586E-2,1.242889906E-3,-1.362402923E-2,2.131635862E-2
9.832085208E0,-8.690807037E-3,9.381710552E-3,-9.853999130E-3,1.614459410E-2
9.842064208E0,1.683270675E-3,2.080853470E-2,-4.129800946E-3,2.128106605E-2
9.852043208E0,1.496580336E-2,2.720997483E-2,1.180286752E-3,3.107653580E-2
9.862022208E0,1.854322664E-2,3.230140731E-2,3.538515884E-3,3.741327656E-2
9.872000208E0,1.929110661E-2,1.991957240E-2,-3.571177949E-4,2.773199762E-2
9.881979208E0,1.160415821E-2,3.234601347E-3,-7.880015299E-3,1.439492184E-2
9.891958208E0,-1.170145581E-3,-1.124426909E-2,-1.506112330E-2,1.883189483E-2
9.901937208E0,-1.046484429E-2,-1.688697562E-2,-1.801217161E-2,2.681643596E-2
9.911916208E0,-1.816011220E-2,-1.467542350E-2,-1.997182332E-2,3.072509490E-2
9.921895208E0,-1.491398644E-2,-9.208219126E-3,-1.653155126E-2,2.409378505E-2
9.931874208E0,-4.416388460E-3,-2.943866421E-3,-1.122050546E-2,1.241251704E-2
9.941853208E0,1.569394022E-2,-1.468741335E-3,-4.918134771E-3,1.651196567E-2
9.951831208E0,3.329855204E-2,3.731813747E-3,3.530839458E-3,3.369253373E-2
9.961810208E0,4.151360318E-2,7.112430409E-3,6.434483919E-3,4.260714140E-2
9.971789208E0,3.873034194E-2,8.588488214E-3,6.398668513E-3,4.018388328E-2
9.981768208E0,2.906546369E-2,7.651055232E-3,5.694262218E-3,3.059026721E-2
9.991747208E0,1.711262204E-2,1.286298851E-3,4.100612132E-4,1.716579587E-2
1.000172521E1,7.194743492E-3,-4.055469763E-3,-3.837680677E-3,9.107083061E-3
1.001170421E1,4.893918522E-4,-7.499535568E-3,-5.332206842E-3,9.214931792E-3
1.002168321E1,-5.898732692E-3,-8.600752801E-3,-3.969467711E-3,1.115906224E-2
1.003166121E1,-7.277147844E-3,-6.977889687E-3,-4.400811158E-3,1.100068016E-2
1.004164021E1,-2.758829156E-3,-7.252727635E-3,-7.188075222E-3,1.057741092E-2
1.005161921E1,2.021049149E-4,-5.661754403E-3,-3.715561703E-3,6.775079932E-3
1.006159821E1,4.703912418E-3,2.601767657E-3,-2.774933120E-3,6.049482689E-3
1.007157721E1,5.434910767E-3,1.390195917E-2,-6.064768531E-4,1.493889347E-2
1.008155621E1,5.092960782E-3,1.908473670E-2,3.072147490E-3,1.999008541E-2
1.009153521E1,5.734192673E-3,2.259225398E-2,2.477826318E-3,2.343993449E-2
1.010151321E1,5.993318278E-3,2.120554447E-2,3.148410236E-3,2.225999702E-2
1.011149221E1,7.767499425E-3,1.221950911E-2,3.470193478E-4,1.448346894E-2
1.012147121E1,5.963740405E-3,-1.317605376E-3,-6.661621854E-3,9.037670566E-3
1.013145021E1,6.061082706E-3,-7.659523748E-3,-9.159449488E-3,1.339031525E-2
1.014142921E1,7.302330341E-4,-1.063507330E-2,-6.960744038E-3,1.273145639E-2
1.015140821E1,-1.640501199E-3,-9.123396128E-3,-1.201719278E-3,9.347284650E-3
1.016138721E1,-1.750756288E-3,-1.083128154E-2,3.666272853E-3,1.156820488E-2
1.017136621E1,9.297779761E-4,-9.219933301E-3,6.322778761E-3,1.121825247E-2
1.018134421E1,4.566058051E-3,-9.283848107E-3,7.971009240E-3,1.306046362E-2
1.019132321E1,7.605386898E-3,-1.479519997E-2,5.739836022E-3,1.759788537E-2
1.020130221E1,3.423691262E-3,-2.009542286E-2,4.433555529E-3,2.086154588E-2
1.021128121E1,-3.295138944E-3,-2.523711883E-2,4.386117682E-3,2.582650065E-2
1.022126021E1,-1.051922888E-2,-3.203936666E-2,-1.300709555E-4,3.372227914E-2
1.023123921E1,-1.928505488E-2,-3.107796609E-2,-7.086797152E-3,3.725555008E-2
1.024121821E1,-2.671367675E-2,-2.258967236E-2,-1.705900207E-2,3.892201658E-2
1.025119721E1,-3.034997918E-2,-1.082242839E-2,-2.212681063E-2,3.908761877E-2
1.026117521E1,-2.833609469E-2,-1.370870043E-3,-2.485095710E-2,3.771450140E-2
1.027115421E1,-2.283748984E-2,2.663153224E-3,-1.998604462E-2,3.046449256E-2
1.028113321E1,-1.221866813E-2,-2.856780775E-3,-1.498302910E-2,1.954349529E-2
1.029111221E1,-4.265633412E-3,-8.294222876E-3,-1.111629792E-2,1.451074915E-2
1.030109121E1,5.032526795E-3,-1.155526377E-2,-3.966508433E-3,1.321301010E-2
1.031107021E1,7.962583564E-3,-1.406609081E-2,-6.910618395E-4,1.617823272E-2
1.032104921E1,6.976148579E-3,-1.147430204E-2,2.303662710E-3,1.362472452E-2
1.033102821E1,8.290281519E-3,-6.037059240E-3,5.327466410E-3,1.155667557E-2
1.034100621E1,8.503334597E-3,-9.745244868E-3,5.146904383E-3,1.392002592E-2
1.035098521E1,8.152971976E-3,-1.463101618E-2,7.456665393E-3,1.833410607E-2
1.036096421E1,7.332452573E-3,-1.796289720E-2,9.235391393E-3,2.148774047E-2
1.037094321E1,5.884522572E-3,-1.601532474E-2,9.185072966E-3,1.937740431E-2
1.038092221E1,-1.370727085E-3,-1.335642487E-2,5.229479633E-3,1.440904005E-2
1.039090121E1,-5.139691755E-3,-8.247219026E-3,3.878493095E-3,1.046306655E-2
1.040088021E1,-1.003990788E-2,-3.260449506E-3,2.913629869E-3,1.095077715E-2
1.041085821E1,-1.384612639E-2,3.123809583E-4,4.030609503E-3,1.442423692E-2
1.042083721E1,-1.818973944E-2,-1.930533443E-3,4.900131375E-3,1.893686531E-2
1.043081621E1,-2.012721635E-2,-1.091697067E-2,6.288021803E-3,2.374498484E-2
1.044079521E1,-2.428707294E-2,-1.755436696E-2,4.347376525E-3,3.028064389E-2
1.045077421E1,-2.434056997E-2,-1.941804774E-2,3.419551998E-3,3.132438763E-2
1.046075321E1,-2.557094954E-2,-1.718152501E-2,6.637715735E-3,3.151408466E-2
1.047073221E1,-2.910333499E-2,-1.325043291E-2,6.106167566E-3,3.255554273E-2
1.048071121E1,-2.733366378E-2,-1.486324333E-2,5.750102922E-3,3.164030438E-2
1.049068921E1,-2.700956166E-2,-1.723046042E-2,-1.147789881E-4,3.203776461E-2
1.050066821E1,-2.804419957E-2,-1.575107314E-2,-2.321474254E-3,3.224845232E-2
1.051064721E1,-3.279745951E-2,-1.117576286E-2,2.287629293E-3,3.472469257E-2
1.052062621E1,-3.389627859E-2,-4.829716403E-3,4.389395937E-3,3.451884499E-2
1.053060521E1,-2.970734984E-2,-7.618716918E-4,5.139766727E-3,3.015832032E-2
1.054058421E1,-2.276768535E-2,-4.993634764E-3,6.150556728E-4,2.331699333E-2
1.055056321E1,-1.980167627E-2,-1.338711753E-2,-7.949911058E-3,2.518972777E-2
1.056054221E1,-2.044349909E-2,-1.610647142E-2,-1.430314779E-2,2.969739237E-2
1.057052021E1,-1.876177266E-2,-1.451370399E-2,-1.923528686E-2,3.053928581E-2
1.058049921E1,-1.986751705E-2,-1.180739887E-2,-2.453018539E-2,3.370256514E-2
1.059047821E1,-1.574490778E-2,-9.347236715E-3,-2.552106045E-2,3.141014934E-2
1.060045721E1,-9.507518262E-3,1.253606752E-4,-2.552425675E-2,2.723777343E-2
1.061043621E1,-1.648077508E-3,1.095057838E-2,-1.953245886E-2,2.245324643E-2
1.062041521E1,9.040785953E-3,1.239374466E-2,-1.471533347E-2,2.125751059E-2
1.063039421E1,1.076948829E-2,1.113227196E-2,-8.098215796E-3,1.747828527E-2
1.064037321E1,1.123793796E-2,6.461087149E-3,-4.294156097E-3,1.365564620E-2
1.065035121E1,6.252794992E-3,-1.538448967E-3,-1.277910080E-3,6.564855262E-3
1.066033021E1,-1.182484441E-3,-1.600474119E-2,-2.863290021E-3,1.630179253E-2
1.067030921E1,-1.006979216E-2,-2.707350254E-2,-3.291171510E-3,2.907244510E-2
1.068028821E1,-1.507174037E-2,-3.138595819E-2,-4.573483486E-3,3.511627089E-2
1.069026721E1,-1.558703464E-2,-3.033846989E-2,-3.521849401E-3,3.428967523E-2
1.070024621E1,-1.224130485E-2,-2.838637307E-2,-2.749532461E-3,3.103539350E-2
1.071022521E1,-9.302832186E-4,-2.930882946E-2,-5.316327792E-3,2.980161493E-2
1.072020421E1,1.108030695E-2,-2.520675957E-2,-1.160138752E-2,2.987885745E-2
1.073018221E1,1.725796983E-2,-2.143133059E-2,-1.748688519E-2,3.260261657E-2
1.074016121E1,1.094707660E-2,-1.110811904E-2,-1.916094869E-2,2.470568254E-2
1.075014021E1,3.686314449E-3,-5.844114348E-3,-2.017689496E-2,2.132720509E-2
1.076011921E1,-2.622714266E-3,7.860909682E-4,-2.111725882E-2,2.129401768E-2
1.077009821E1,-4.993495531E-3,3.926556557E-3,-2.188832872E-2,2.279148477E-2
1.078007721E1,-4.075503908E-3,3.242923412E-3,-2.200577408E-2,2.261372100E-2
1.079005621E1,-2.972136484E-3,5.474585574E-3,-1.876942255E-2,1.977614485E-2
1.080003521E1,-1.721249660E-3,2.256155480E-3,-1.910418272E-2,1.931379650E-2
1.081001321E1,-2.760136966E-3,-1.196831930E-3,-2.132132463E-2,2.153252532E-2
1.081999221E1,-3.522333689E-3,-8.279509842E-3,-2.141533419E-2,2.322872481E-2
1.082997121E1,-4.087214358E-3,-1.810537465E-2,-2.336091921E-2,2.983693112E-2
1.083995021E1,-8.640154265E-3,-2.584185824E-2,-2.220484056E-2,3.514980579E-2
1.084992921E1,-6.572166458E-3,-3.059633449E-2,-2.319664508E-2,3.895399080E-2
1.085990821E1,-1.802977407E-3,-2.892972529E-2,-2.140939794E-2,3.603528900E-2
1.086988721E1,3.802165855E-3,-2.523306012E-2,-1.966203749E-2,3.221427489E-2
1.087986621E1,1.640903763E-2,-2.257602476E-2,-1.146402955E-2,3.017212925E-2
1.088984421E1,2.280539460E-2,-2.164005488E-2,-6.383396219E-3,3.207998980E-2
1.089982321E1,2.351113223E-2,-1.667112857E-2,-8.898486383E-3,3.016426572E-2
1.090980221E1,1.871020347E-2,-1.319304109E-2,-9.489737451E-3,2.478271906E-2
1.091978121E1,1.508697309E-2,-1.264229976E-2,-1.301762741E-2,2.359879496E-2
1.092976021E1,1.903196983E-2,-1.962390915E-2,-1.763431355E-2,3.253125728E-2
1.093973921E1,1.855686121E-2,-2.488125674E-2,-2.184317447E-2,3.795468754E-2
1.094971821E1,2.015525848E-2,-2.761392482E-2,-2.738683112E-2,4.380413002E-2
1.095969621E1,2.088975906E-2,-2.840834484E-2,-2.955863811E-2,4.601227203E-2
1.096967521E1,2.082475461E-2,-1.883734390E-2,-2.725035883E-2,3.912924720E-2
1.097965421E1,2.010463551E-2,-1.270728000E-2,-2.209980413E-2,3.246648543E-2
1.098963321E1,2.096469887E-2,-5.570871755E-3,-1.320444234E-2,2.539508827E-2
1.099961221E1,2.164593525E-2,-4.748221487E-3,-5.606177729E-3,2.285872588E-2
1.100959129E1,2.462914586E-2,-1.108521596E-2,-3.477543360E-3,2.723178559E-2
1.101957029E1,2.365176566E-2,-1.681367494E-2,-1.613330794E-3,2.906386967E-2
1.102954929E1,1.998078823E-2,-2.619259618E-2,1.265566447E-3,3.296794885E-2
1.103952729E1,1.286056079E-2,-3.305742517E-2,2.787030302E-3,3.558026027E-2
1.104950629E1,3.807500005E-3,-3.103355691E-2,4.287907388E-3,3.155891095E-2
1.105948529E1,-2.093532123E-3,-2.671071328E-2,4.679125734E-3,2.719814881E-2
1.106946429E1,-3.461645218E-3,-2.333835512E-2,1.049357839E-2,2.582202538E-2
1.107944329E1,2.882536966E-3,-1.961525530E-2,1.009969693E-2,2.225019411E-2
1.108942229E1,1.286295801E-2,-1.776235923E-2,6.364987232E-3,2.283572107E-2
1.109940129E1,1.969130337E-2,-1.238490455E-2,2.234690823E-3,2.336936311E-2
1.110938029E1,1.674054191E-2,-1.048826799E-2,-4.069197923E-3,2.016947893E-2
1.111935829E1,9.863726795E-3,-1.896644477E-3,-9.282335639E-3,1.367669995E-2
1.112933729E1,6.240579300E-3,2.223466989E-3,-6.495756097E-3,9.278118490E-3
1.113931629E1,4.449070897E-3,5.617931951E-3,-6.936509628E-3,9.973492722E-3
1.114929529E1,8.730823174E-3,3.780082799E-3,-3.244614229E-3,1.005205555E-2
1.115927429E1,1.098332368E-2,-6.475217640E-3,-8.161608130E-3,1.513848373E-2
1.116925329E1,8.608936332E-3,-9.353959933E-3,-6.722786929E-3,1.438075851E-2
1.117923229E1,2.444517333E-3,-8.127308451E-3,-7.196296938E-3,1.112724122E-2
1.118921129E1,-2.509153215E-3,-3.954997286E-3,-5.593129434E-3,7.295269032E-3
1.119918929E1,-2.089971909E-3,-1.188771799E-3,-4.588210722E-4,2.447790381E-3
1.120916829E1,2.852176782E-3,-3.877836745E-3,-6.344400463E-4,4.855413926E-3
1.121914729E1,8.732968941E-3,-7.665917277E-3,-1.097031171E-3,1.167195406E-2
1.122912629E1,1.430030353E-2,-9.911959991E-3,-9.791220073E-4,1.742711427E-2
1.123910529E1,1.326380111E-2,-3.657260444E-3,6.794112269E-3,1.534483416E-2
1.124908429E1,6.326282397E-3,9.988244623E-3,1.282751281E-2,1.744511291E-2
1.125906329E1,4.489234183E-3,1.892581210E-2,1.779936999E-2,2.636583318E-2
1.126904229E1,4.716683645E-3,1.850955933E-2,1.885718666E-2,2.684109499E-2
1.127902029E1,1.184916124E-2,1.040210016E-2,9.837591089E-3,1.858452335E-2
1.128899929E1,1.381056011E-2,1.193487667E-3,1.350850798E-4,1.386269206E-2
1.129897829E1,8.391027339E-3,-5.293440074E-3,-8.132698946E-3,1.282850887E-2
1.130895729E1,8.139362559E-3,-4.569925833E-3,-1.486749761E-2,1.755494033E-2
1.131893629E1,1.237778366E-2,2.142837970E-3,-1.571145281E-2,2.011593976E-2
1.132891529E1,1.581909694E-2,9.777188301E-3,-1.016716566E-2,2.119453931E-2
1.133889429E1,2.055765875E-2,1.600312628E-2,-2.044258406E-3,2.613228609E-2
1.134887329E1,2.411081828E-2,1.900018193E-2,5.625160877E-3,3.120866717E-2
1.135885129E1,2.486902103E-2,1.427147351E-2,1.214404684E-2,3.113873852E-2
1.136883029E1,1.675995439E-2,8.770314977E-3,1.352422498E-2,2.325336873E-2
1.137880929E1,1.911499421E-3,-5.012142938E-4,1.186480932E-2,1.202824784E-2
1.138878829E1,-1.464394573E-2,-6.645925343E-3,1.062010601E-2,1.927174413E-2
1.139876729E1,-2.902901173E-2,-7.408122532E-3,9.130333550E-3,3.131975083E-2
1.140874629E1,-3.365629166E-2,-1.038700156E-2,1.473053917E-2,3.817884957E-2
1.141872529E1,-2.400100231E-2,-8.699622937E-3,1.658516563E-2,3.044337810E-2
1.142870429E1,-1.386285201E-2,-8.758411743E-3,1.957025006E-2,2.553200207E-2
1.143868229E1,-7.898703218E-3,-6.604447030E-3,2.221929654E-2,2.448888262E-2
1.144866129E1,-3.334842622E-4,-1.894780435E-3,1.534206979E-2,1.546222850E-2
1.145864029E1,-1.636036439E-3,4.562053364E-3,1.837446587E-3,5.183160820E-3
1.146861929E1,-6.710706279E-3,1.213741489E-2,-7.647144608E-3,1.583758945E-2
1.147859829E1,-1.396755315E-2,2.531899698E-2,-8.356877603E-3,3.009952745E-2
1.148857729E1,-1.683438383E-2,3.395456448E-2,-1.045834180E-2,3.931521132E-2
1.149855629E1,-1.283218525E-2,3.733651340E-2,-1.577667519E-2,4.251568759E-2
1.150853429E1,-1.565725310E-3,4.198845476E-2,-2.074848674E-2,4.686130099E-2
1.151851329E1,6.122821011E-3,4.921947047E-2,-2.385026962E-2,5.503526661E-2
1.152849229E1,2.018004656E-2,4.962167516E-2,-2.108038589E-2,5.756672298E-2
1.153847129E1,3.429852799E-2,4.316244274E-2,-1.095478144E-2,5.620847553E-2
1.154845029E1,4.371893778E-2,3.964747116E-2,2.320948057E-3,5.906483125E-2
1.155842929E1,4.486729205E-2,4.234045744E-2,1.663916744E-2,6.389561898E-2
1.156840829E1,3.822826222E-2,5.257072672E-2,2.830033004E-2,7.089421712E-2
1.157838729E1,3.333497420E-2,6.300019473E-2,4.741730168E-2,8.560750866E-2
1.158836529E1,4.076254740E-2,5.759397894E-2,6.769275665E-2,9.778016662E-2
1.159834429E1,5.504002050E-2,4.544623569E-2,7.915047556E-2,1.065812459E-1
1.160832329E1,7.246296853E-2,2.353767492E-2,8.289202303E-2,1.125877055E-1
1.161830229E1,8.224262297E-2,-1.360749826E-3,8.071409166E-2,1.152409010E-1
1.162828129E1,8.675033599E-2,-3.601047024E-2,7.652456313E-2,1.211543789E-1
1.163826029E1,9.278479218E-2,-7.143983245E-2,6.549721211E-2,1.341735895E-1
1.164823929E1,1.016014218E-1,-1.182899699E-1,4.976011068E-2,1.636808923E-1
1.165821829E1,1.020088866E-1,-1.478566378E-1,3.538330272E-2,1.830829769E-1
1.166819629E1,8.876100928E-2,-1.484717727E-1,3.266255558E-2,1.760375715E-1
1.167817529E1,6.881366670E-2,-1.314983815E-1,3.823735192E-2,1.532619984E-1
1.168815429E1,5.456142873E-2,-1.000968516E-1,4.801624641E-2,1.237008049E-1
1.169813329E1,5.395929143E-2,-6.618335843E-2,5.379450694E-2,1.009241846E-1
1.170811229E1,7.078509778E-2,-3.478401899E-2,5.221162736E-2,9.458600360E-2
1.171809129E1,9.565342963E-2,-6.272749975E-3,4.688397422E-2,1.067100418E-1
1.172807029E1,1.302719712E-1,1.848346181E-2,3.721436486E-2,1.367381944E-1
1.173804929E1,1.607478559E-1,1.748158224E-2,2.940863743E-2,1.643482487E-1
1.174802729E1,1.695452482E-1,8.331159130E-3,2.172011323E-2,1.711337568E-1
1.175800629E1,1.459168792E-1,-7.101326715E-3,1.857252419E-2,1.472654173E-1
1.176798529E1,1.018565074E-1,-2.613274194E-2,1.181176398E-2,1.058167570E-1
1.177796429E1,5.086868256E-2,-4.648328573E-2,-1.014552312E-3,6.891551374E-2
1.178794329E1,-5.002817139E-3,-6.210332736E-2,-1.821476407E-2,6.491247245E-2
1.179792229E1,-6.305919588E-2,-5.290317163E-2,-2.020308003E-2,8.475477683E-2
1.180790129E1,-1.090544611E-1,-2.504630201E-2,-1.004976407E-2,1.123440719E-1
1.181788029E1,-1.225697324E-1,7.200848777E-3,3.558189375E-3,1.228326187E-1
1.182785829E1,-1.044979841E-1,3.443100303E-2,2.568284981E-2,1.129819960E-1
1.183783729E1,-6.467706710E-2,6.293055415E-2,4.042131454E-2,9.888002995E-2
1.184781629E1,-2.869166806E-2,8.722517639E-2,4.458468035E-2,1.020746635E-1
1.185779529E1,-2.271244768E-3,1.081477702E-1,4.112550244E-2,1.157255620E-1
1.186777429E1,6.978510413E-3,1.322198063E-1,3.979875520E-2,1.382559861E-1
1.187775329E1,8.615821600E-3,1.504030824E-1,4.402199760E-2,1.569498514E-1
1.188773229E1,3.150228877E-4,1.552863866E-1,4.955352098E-2,1.630015722E-1
1.189771129E1,-7.523724809E-3,1.430555433E-1,5.406678095E-2,1.531166605E-1
1.190768929E1,-1.693454944E-2,1.169666275E-1,5.537737906E-2,1.305167615E-1
1.191766829E1,-3.499717265E-2,8.054763079E-2,6.134046242E-2,1.071231779E-1
1.192764729E1,-5.404864252E-2,2.418582141E-2,6.608034670E-2,8.872892390E-2
1.193762629E1,-6.746005267E-2,-5.475400016E-2,5.849513039E-2,1.047403433E-1
1.194760529E1,-7.299384475E-2,-1.123714224E-1,3.516390920E-2,1.385349719E-1
1.195758429E1,-7.727008313E-2,-1.677095145E-1,1.688530296E-2,1.854245411E-1
1.196756329E1,-8.845163882E-2,-2.092895210E-1,2.856362378E-3,2.272310604E-1
1.197754129E1,-1.072857827E-1,-2.321431637E-1,2.482454525E-3,2.557476299E-1
1.198752029E1,-1.369174123E-1,-2.432991415E-1,1.620574296E-2,2.796488444E-1
1.199749929E1,-1.728104353E-1,-2.506524026E-1,4.640359059E-2,3.079665026E-1
1.200747867E1,-2.089154571E-1,-2.632277906E-1,7.425379008E-2,3.441629895E-1
1.201745767E1,-2.349627763E-1,-2.482767850E-1,9.875540435E-2,3.558110427E-1
1.202743667E1,-2.433271706E-1,-2.078814954E-1,1.225676164E-1,3.427034413E-1
1.203741567E1,-2.475682497E-1,-1.758109182E-1,1.386469752E-1,3.338000913E-1
1.204739467E1,-2.439935803E-1,-1.420791894E-1,1.351940185E-1,3.130443834E-1
1.205737267E1,-2.284726799E-1,-1.109697372E-1,1.126242504E-1,2.778457662E-1
1.206735167E1,-1.987352222E-1,-7.811491191E-2,7.181409746E-2,2.252884653E-1
1.207733067E1,-1.582879275E-1,-4.556949064E-2,2.326626331E-2,1.663519326E-1
1.208730967E1,-1.197768375E-1,-4.839503672E-3,-2.544500120E-2,1.225453373E-1
1.209728867E1,-9.308210760E-2,3.640886396E-2,-6.352660805E-2,1.184293632E-1
1.210726767E1,-7.140688598E-2,6.391765177E-2,-8.907449245E-2,1.308383536E-1
1.211724667E1,-5.680051446E-2,7.531198859E-2,-9.884110838E-2,1.366300069E-1
1.212722567E1,-4.379177839E-2,8.731178939E-2,-1.038650349E-1,1.425798509E-1
1.213720367E1,-3.001204878E-2,9.517397732E-2,-1.013747156E-1,1.422520368E-1
1.214718267E1,-1.948720403E-2,1.036260575E-1,-9.455513954E-2,1.416290413E-1
1.215716167E1,-4.457122646E-3,1.147335693E-1,-7.602193207E-2,1.377061801E-1
1.216714067E1,4.705000669E-3,1.196339801E-1,-6.361044198E-2,1.355754939E-1
1.217711967E1,8.431029506E-3,1.159508303E-1,-5.484864116E-2,1.285459091E-1
1.218709867E1,1.642847434E-3,1.144406199E-1,-4.648321494E-2,1.235315495E-1
1.219707767E1,-1.239174511E-2,1.131833419E-1,-3.001688793E-2,1.177498951E-1
1.220705667E1,-2.164541930E-2,1.286169589E-1,-3.856451716E-3,1.304826368E-1
1.221703467E1,-2.315649576E-2,1.313775927E-1,3.207678348E-2,1.372050115E-1
1.222701367E1,-1.818147674E-2,1.124821901E-1,7.088594139E-2,1.341924956E-1
1.223699267E1,-1.356675103E-2,6.910222769E-2,1.134166270E-1,1.335009584E-1
1.224697167E1,-4.708478693E-3,8.433225565E-3,1.487880349E-1,1.491012019E-1
1.225695067E1,-7.693349849E-3,-6.131496280E-2,1.526863724E-1,1.647174569E-1
1.226692967E1,-2.875074930E-2,-1.277812719E-1,1.359861195E-1,1.888038234E-1
1.227690867E1,-6.606723368E-2,-1.706331372E-1,1.108951569E-1,2.139586004E-1
1.228688767E1,-1.071715429E-1,-1.959412247E-1,9.252019227E-2,2.417409546E-1
1.229686567E1,-1.369587481E-1,-1.958437413E-1,8.008882403E-2,2.520450147E-1
1.230684467E1,-1.446501911E-1,-1.744673550E-1,6.713069975E-2,2.363663821E-1
1.231682367E1,-1.263239086E-1,-1.405448169E-1,6.325127184E-2,1.992769400E-1
1.232680267E1,-9.266018122E-2,-9.821152687E-2,5.879775435E-2,1.472704625E-1
1.233678167E1,-4.569879919E-2,-4.445056245E-2,5.758894235E-2,8.591111122E-2
1.234676067E1,1.285999548E-3,1.559100300E-2,5.529109389E-2,5.746162400E-2
1.235673967E1,4.801329225E-2,7.500452548E-2,5.873935297E-2,1.066830196E-1
1.236671867E1,8.573404700E-2,1.214086413E-1,6.638782471E-2,1.627812283E-1
1.237669667E1,1.119832247E-1,1.607576609E-1,7.243959606E-2,2.088797818E-1
1.238667567E1,1.286958307E-1,1.820564121E-1,7.761314511E-2,2.360740442E-1
1.239665467E1,1.321744621E-1,1.803189665E-1,8.433629572E-2,2.389511015E-1
1.240663367E1,1.233147308E-1,1.647477299E-1,8.475659043E-2,2.225578958E-1
1.241661267E1,1.007923782E-1,1.301210523E-1,9.247816354E-2,1.887930149E-1
1.242659167E1,7.316287607E-2,9.141559899E-2,1.080138385E-1,1.593003688E-1
1.243657067E1,5.109032989E-2,5.215607211E-2,1.362265646E-1,1.545579328E-1
1.244654967E1,3.287776187E-2,2.123797126E-2,1.628356725E-1,1.674737439E-1
1.245652767E1,2.114227787E-2,9.534710553E-4,1.855439097E-1,1.867470145E-1
1.246650667E1,1.646919735E-2,-1.144807227E-2,2.085189819E-1,2.094814041E-1
1.247648567E1,2.503738739E-2,-1.667026430E-2,2.218398452E-1,2.238697956E-1
1.248646467E1,4.349262267E-2,-2.572820708E-2,2.252508700E-1,2.308495252E-1
1.249644367E1,7.724712044E-2,-3.031390533E-2,2.199471742E-1,2.350804328E-1
1.250642267E1,1.197463572E-1,-4.647037014E-2,2.033097297E-1,2.404860319E-1
1.251640167E1,1.596186757E-1,-5.130347610E-2,1.808901727E-1,2.466402702E-1
1.252638067E1,2.002843022E-1,-3.815658391E-2,1.523400545E-1,2.545136908E-1
1.253635867E1,2.324986905E-1,-2.106787637E-2,1.249798164E-1,2.648007760E-1
1.254633767E1,2.601686418E-1,-7.989024743E-3,1.062931344E-1,2.811579220E-1
1.255631667E1,2.801873684E-1,5.607477389E-3,9.189742059E-2,2.949263317E-1
1.256629567E1,2.994201481E-1,1.414770260E-2,8.044472337E-2,3.103609771E-1
1.257627467E1,3.079861999E-1,2.014860325E-2,7.655704021E-2,3.179975565E-1
1.258625367E1,3.061691225E-1,2.422290668E-2,7.909937948E-2,3.171482186E-1
1.259623267E1,2.935183048E-1,2.096479572E-2,8.859302104E-2,3.073129371E-1
1.260621167E1,2.713102400E-1,3.870231099E-3,9.995167702E-2,2.891618280E-1
1.261618967E1,2.429587543E-1,-1.514953189E-2,1.153793707E-1,2.693897990E-1
1.262616867E1,2.121966332E-1,-3.837456182E-2,1.317515820E-1,2.527023892E-1
1.263614767E1,1.768974960E-1,-5.107464269E-2,1.526461989E-1,2.391698251E-1
1.264612667E1,1.377263665E-1,-4.941662401E-2,1.689778119E-1,2.235264094E-1
1.265610567E1,8.670499176E-2,-4.119278491E-2,1.836331934E-1,2.072094371E-1
1.266608467E1,3.435984999E-2,-1.418213733E-2,2.055363357E-1,2.088705762E-1
1.267606367E1,-2.387842536E-2,1.707804762E-2,2.289393991E-1,2.308139670E-1
1.268604167E1,-7.026385516E-2,5.336195230E-2,2.527504861E-1,2.677075186E-1
1.269602067E1,-9.651783109E-2,7.577590644E-2,2.744350135E-1,3.006197871E-1
1.270599967E1,-1.027498916E-1,8.651131392E-2,2.881737649E-1,3.179400359E-1
1.271597867E1,-1.017354950E-1,8.646844327E-2,2.875420749E-1,3.170289379E-1
1.272595767E1,-1.012638360E-1,7.085539401E-2,2.631041408E-1,2.906864982E-1
1.273593667E1,-9.885554016E-2,4.760439694E-2,2.208536118E-1,2.466068010E-1
1.274591567E1,-9.741903096E-2,1.653542556E-2,1.669304520E-1,1.939836686E-1
1.275589467E1,-9.919695556E-2,-1.562250964E-2,1.102168486E-1,1.491034960E-1
1.276587267E1,-1.016031057E-1,-3.511358798E-2,5.539721623E-2,1.209338940E-1
1.277585167E1,-1.027645096E-1,-3.852323070E-2,1.268916670E-2,1.104789514E-1
1.278583067E1,-9.523362666E-2,-3.791470081E-2,-1.676432788E-2,1.038653497E-1
1.279580967E1,-8.866547048E-2,-2.123265900E-2,-2.590776049E-2,9.478187336E-2
1.280578867E1,-7.270513475E-2,6.080588326E-3,-2.028995007E-2,7.572775084E-2
1.281576767E1,-5.040196329E-2,3.128341213E-2,-3.865500912E-4,5.932250163E-2
1.282574667E1,-2.508756518E-2,4.518112168E-2,2.536487766E-2,5.756819175E-2
1.283572567E1,1.933132065E-3,4.525861889E-2,6.527767330E-2,7.945598917E-2
1.284570367E1,1.993001997E-2,3.956298158E-2,1.067734063E-1,1.155984234E-1
1.285568267E1,2.666222490E-2,2.281356417E-2,1.395129859E-1,1.438582851E-1
1.286566167E1,2.477935329E-2,1.193488017E-3,1.586658806E-1,1.605935939E-1
1.287564067E1,9.057913907E-3,-3.122783639E-2,1.678543240E-1,1.709745526E-1
1.288561967E1,-1.025561150E-2,-6.003711373E-2,1.710519791E-1,1.815720577E-1
1.289559867E1,-3.366666287E-2,-7.777562737E-2,1.717934012E-1,1.915606043E-1
1.290557767E1,-6.587313116E-2,-8.799631149E-2,1.648877859E-1,1.981681160E-1
1.291555667E1,-1.008572131E-1,-8.279941976E-2,1.501684934E-1,1.989434537E-1
1.292553467E1,-1.357975751E-1,-5.502730981E-2,1.329142898E-1,1.978261729E-1
1.293551367E1,-1.579350978E-1,-6.064292043E-3,1.123283282E-1,1.939018413E-1
1.294549267E1,-1.638939530E-1,5.335655808E-2,8.693227917E-2,1.930424080E-1
1.295547167E1,-1.488489658E-1,9.823933989E-2,6.995090097E-2,1.915727305E-1
1.296545067E1,-1.233419776E-1,1.372274905E-1,5.022088811E-2,1.912243844E-1
1.297542967E1,-1.017509252E-1,1.690506637E-1,3.435431048E-2,2.002787965E-1
1.298540867E1,-9.664192796E-2,1.882882118E-1,1.523180585E-2,2.121888802E-1
1.299538767E1,-1.085126996E-1,1.869555563E-1,-7.643416524E-3,2.163002723E-1
1.300536579E1,-1.239007786E-1,1.731793582E-1,-3.499632329E-2,2.157944293E-1
1.301534479E1,-1.312114149E-1,1.345629990E-1,-6.311797351E-2,1.982612284E-1
1.302532379E1,-1.218223721E-1,9.002888948E-2,-8.654554933E-2,1.744592313E-1
1.303530279E1,-9.805499017E-2,5.011688545E-2,-1.050531864E-1,1.521928227E-1
1.304528179E1,-7.305002213E-2,2.584317327E-2,-1.088912562E-1,1.336468518E-1
1.305526079E1,-4.931779206E-2,2.301809192E-2,-1.022053882E-1,1.157929987E-1
1.306523979E1,-3.219369054E-2,3.352759033E-2,-8.777546883E-2,9.932303837E-2
1.307521879E1,-2.140735649E-2,4.997607321E-2,-6.679828465E-2,8.612719453E-2
1.308519679E1,-5.964734592E-3,6.614998728E-2,-3.842122480E-2,7.673062877E-2
1.309517579E1,1.585001685E-2,6.950023770E-2,-9.147757664E-3,7.186923921E-2
1.310515479E1,3.773501515E-2,5.789145455E-2,1.480234507E-2,7.067150273E-2
1.311513379E1,5.087079108E-2,3.834971040E-2,3.083617240E-2,7.077716582E-2
1.312511279E1,4.469340667E-2,2.571134642E-2,4.514066130E-2,6.852921448E-2
1.313509179E1,2.199235372E-2,1.412686333E-2,5.103982985E-2,5.734366679E-2
1.314507079E1,-6.062453147E-3,5.542496685E-3,5.663958937E-2,5.723212115E-2
1.315504979E1,-2.723485045E-2,-3.228492569E-4,6.348311901E-2,6.907928568E-2
1.316502779E1,-3.876739740E-2,-1.349831000E-3,7.088730484E-2,8.080682603E-2
1.317500679E1,-4.581731930E-2,-9.660225362E-3,7.862911373E-2,9.151548628E-2
1.318498579E1,-5.438260362E-2,-1.245820895E-2,7.783873379E-2,9.576817334E-2
1.319496479E1,-6.109429896E-2,-7.818982005E-3,6.588913500E-2,9.019438983E-2
1.320494379E1,-6.522596627E-2,7.211432792E-3,4.784533009E-2,8.121334281E-2
1.321492279E1,-6.018300354E-2,3.152982146E-2,2.862103470E-2,7.372440019E-2
1.322490179E1,-4.267751426E-2,4.404188693E-2,1.269053761E-2,6.262673368E-2
1.323488079E1,-1.474015787E-2,5.344044417E-2,-7.229374256E-3,5.590543068E-2
1.324485879E1,2.072597481E-2,5.808286741E-2,-2.026900090E-2,6.491546747E-2
1.325483779E1,5.533881113E-2,6.508006155E-2,-2.587761730E-2,8.926057084E-2
1.326481679E1,8.254566789E-2,7.393380255E-2,-3.203784302E-2,1.153534474E-1
1.327479579E1,9.605535120E-2,7.306188345E-2,-4.135145247E-2,1.275719872E-1
1.328477479E1,1.016429588E-1,6.073378026E-2,-5.117682740E-2,1.289920571E-1
1.329475379E1,1.024853140E-1,3.676426411E-2,-5.581419170E-2,1.223522566E-1
1.330473279E1,9.671018273E-2,1.206011698E-2,-6.150580943E-2,1.152443945E-1
1.331471179E1,9.601908922E-2,-1.782667451E-2,-6.644437462E-2,1.181198998E-1
1.332468979E1,1.051886827E-1,-5.400485173E-2,-6.885670125E-2,1.368299247E-1
1.333466879E1,1.154943183E-1,-7.830060273E-2,-6.408671290E-2,1.535481316E-1
1.334464779E1,1.268002391E-1,-8.761254698E-2,-5.660168827E-2,1.641889464E-1
1.335462679E1,1.284458041E-1,-8.750229329E-2,-5.466583371E-2,1.647523272E-1
1.336460579E1,1.245567873E-1,-7.789873332E-2,-5.162657797E-2,1.557174026E-1
1.337458479E1,1.217239797E-1,-6.560344994E-2,-4.762278125E-2,1.462479715E-1
1.338456379E1,1.193739995E-1,-5.727940798E-2,-5.919535086E-2,1.450350713E-1
1.339454279E1,1.192722693E-1,-3.677120805E-2,-7.416684180E-2,1.451851108E-1
1.340452079E1,1.188494042E-1,-1.843261160E-2,-9.077196568E-2,1.506800975E-1
1.341449979E1,1.189679131E-1,7.865838706E-3,-1.072374880E-1,1.603593296E-1
1.342447879E1,1.202448159E-1,3.467940912E-2,-1.217819229E-1,1.746204854E-1
1.343445779E1,1.184924543E-1,6.265884638E-2,-1.279356927E-1,1.852947226E-1
1.344443679E1,1.090833098E-1,8.984885365E-2,-1.157436296E-1,1.826706675E-1
1.345441579E1,9.758377820E-2,1.154684648E-1,-1.008128822E-1,1.817107519E-1
1.346439479E1,8.521421999E-2,1.348620057E-1,-9.123254567E-2,1.837732333E-1
1.347437279E1,7.693018764E-2,1.513485759E-1,-8.318527788E-2,1.890619890E-1
1.348435179E1,7.353436947E-2,1.512688100E-1,-9.111817926E-2,1.912905616E-1
1.349433079E1,7.913073897E-2,1.392158717E-1,-1.190078631E-1,1.995134188E-1
1.350430979E1,8.982782811E-2,1.183435470E-1,-1.610199958E-1,2.190928407E-1
1.351428879E1,1.060515344E-1,9.214363247E-2,-2.011727393E-1,2.453728754E-1
1.352426779E1,1.219804436E-1,7.196213305E-2,-2.247530818E-1,2.656533926E-1
1.353424679E1,1.340341717E-1,5.085019022E-2,-2.321819812E-1,2.728724490E-1
1.354422579E1,1.304500997E-1,2.545974590E-2,-2.299160212E-1,2.655688310E-1
1.355420479E1,1.122196987E-1,-3.021963406E-3,-2.225353420E-1,2.492476108E-1
1.356418279E1,8.477155864E-2,-2.933366224E-2,-2.165866941E-1,2.344279782E-1
1.357416179E1,5.182186514E-2,-5.377322435E-2,-2.217553556E-1,2.339925279E-1
1.358414079E1,2.387627959E-2,-6.781680882E-2,-2.312306762E-1,2.421504117E-1
1.359411979E1,2.942501567E-3,-5.780012161E-2,-2.389397323E-1,2.458489537E-1
1.360409879E1,-8.429232053E-3,-2.319094725E-2,-2.338766158E-1,2.351747082E-1
1.361407779E1,-1.190012973E-2,1.850803010E-2,-2.263001949E-1,2.273674085E-1
1.362405679E1,6.850439589E-3,5.666014552E-2,-2.226739377E-1,2.298716667E-1
1.363403479E1,4.443855956E-2,9.346050024E-2,-2.093157917E-1,2.335010735E-1
1.364401379E1,8.947662264E-2,1.239467710E-1,-1.814931929E-1,2.372944313E-1
1.365399279E1,1.245858744E-1,1.522151679E-1,-1.458483785E-1,2.448731242E-1
1.366397179E1,1.429896504E-1,1.724607795E-1,-1.097345874E-1,2.494602980E-1
1.367395079E1,1.476003826E-1,1.812982112E-1,-8.601247519E-2,2.491045166E-1
1.368392979E1,1.377759725E-1,1.819391549E-1,-7.575552166E-2,2.404640799E-1
1.369390879E1,1.221176460E-1,1.759901941E-1,-7.116635889E-2,2.257208863E-1
1.370388779E1,1.028182358E-1,1.692848355E-1,-7.554853708E-2,2.119823733E-1
1.371386579E1,8.948192745E-2,1.663516164E-1,-8.171268553E-2,2.058077710E-1
1.372384479E1,8.782563359E-2,1.580973566E-1,-9.884477407E-2,2.061029001E-1
1.373382379E1,9.388379008E-2,1.412091851E-1,-1.173012778E-1,2.061887237E-1
1.374380279E1,1.001709700E-1,1.102751642E-1,-1.335891187E-1,2.001021932E-1
1.375378179E1,1.000037193E-1,6.773809344E-2,-1.429812908E-1,1.871706246E-1
1.376376079E1,9.127929807E-2,4.166701064E-2,-1.463833600E-1,1.774715136E-1
1.377373979E1,7.688757032E-2,2.928544395E-2,-1.370180845E-1,1.598226867E-1
1.378371879E1,6.170242652E-2,1.824344322E-2,-1.273234189E-1,1.426578622E-1
1.379369679E1,5.072354525E-2,1.879685000E-2,-1.282683015E-1,1.392083215E-1
1.380367579E1,4.626522213E-2,1.615532860E-2,-1.330034435E-1,1.417440701E-1
1.381365479E1,4.995050281E-2,6.538919173E-3,-1.377968639E-1,1.467166858E-1
1.382363379E1,5.323816463E-2,-2.921228297E-3,-1.405712664E-1,1.503433294E-1
1.383361279E1,3.909251839E-2,5.462071858E-4,-1.391922832E-1,1.445787503E-1
1.384359179E1,1.272619423E-2,1.314197551E-3,-1.396129876E-1,1.401979652E-1
1.385357079E1,-1.592489146E-2,-2.099510282E-2,-1.439057440E-1,1.462985292E-1
1.386354979E1,-4.622986168E-2,-3.746435791E-2,-1.452091187E-1,1.569282205E-1
1.387352779E1,-7.565273345E-2,-5.673871934E-2,-1.424511522E-1,1.709823064E-1
1.388350679E1,-1.044732109E-1,-6.493759155E-2,-1.359423250E-1,1.833353711E-1
1.389348579E1,-1.274576187E-1,-6.874112040E-2,-1.297944188E-1,1.944669056E-1
1.390346479E1,-1.400013268E-1,-6.485017389E-2,-1.129699424E-1,1.912279384E-1
1.391344379E1,-1.380050182E-1,-6.002639607E-2,-8.629252762E-2,1.734789717E-1
1.392342279E1,-1.227728277E-1,-6.596524268E-2,-6.218213961E-2,1.526145437E-1
1.393340179E1,-1.073286235E-1,-7.246788591E-2,-4.275357723E-2,1.363777705E-1
1.394338079E1,-9.331350774E-2,-8.155605197E-2,-2.261357568E-2,1.259768794E-1
1.395335879E1,-9.535029531E-2,-9.891293943E-2,-5.095303990E-3,1.374824008E-1
1.396333779E1,-1.035384238E-1,-1.191712692E-1,9.161994676E-4,1.578696805E-1
1.397331679E1,-1.141383350E-1,-1.360221654E-1,2.001970075E-3,1.775770168E-1
1.398329579E1,-1.305242628E-1,-1.471146196E-1,4.386674147E-3,1.967194383E-1
1.399327479E1,-1.407814324E-1,-1.432301253E-1,1.233757474E-3,2.008377521E-1
1.400325379E1,-1.363432109E-1,-1.321529150E-1,-5.211390555E-3,1.899500532E-1
1.401323317E1,-1.232117042E-1,-1.207460687E-1,-1.326372474E-2,1.730221475E-1
1.402321217E1,-1.078780517E-1,-1.028805152E-1,-2.155149914E-2,1.506205217E-1
1.403319017E1,-9.137657285E-2,-8.039224893E-2,-2.598885819E-2,1.244508437E-1
1.404316917E1,-7.879233360E-2,-4.744402319E-2,-2.382303774E-2,9.500896957E-2
1.405314817E1,-6.432151049E-2,-3.121565562E-3,-1.930098981E-2,6.722744299E-2
1.406312717E1,-4.433428496E-2,2.584483847E-2,-1.679046825E-2,5.399448419E-2
1.407310617E1,-1.979991794E-2,3.854119405E-2,-1.152353548E-2,4.483583677E-2
1.408308517E1,7.909507491E-3,4.399987310E-2,-2.386474516E-3,4.476878826E-2
1.409306417E1,3.722504899E-2,5.249882117E-2,6.361743435E-3,6.467072194E-2
1.410304317E1,6.286100298E-2,6.269147247E-2,1.676630229E-2,9.034841066E-2
1.411302117E1,7.790200412E-2,7.002155483E-2,3.587288409E-2,1.107185811E-1
1.412300017E1,9.027209878E-2,7.560467720E-2,6.262186170E-2,1.333664748E-1
1.413297917E1,9.626980871E-2,8.330094069E-2,9.261917323E-2,1.574332685E-1
1.414295817E1,9.649134427E-2,7.895080000E-2,1.216512099E-1,1.741919206E-1
1.415293717E1,9.033677727E-2,6.999459118E-2,1.407415569E-1,1.812957858E-1
1.416291617E1,8.669620752E-2,6.512786448E-2,1.553913802E-1,1.894844378E-1
1.417289517E1,8.265326172E-2,6.182660535E-2,1.661476195E-1,1.955993923E-1
1.418287417E1,7.636605948E-2,4.688021541E-2,1.736195683E-1,1.953798458E-1
1.419285217E1,5.764855817E-2,2.736563608E-2,1.776670367E-1,1.887797929E-1
1.420283117E1,2.853385732E-2,8.676238358E-3,1.775271147E-1,1.800148177E-1
1.421281017E1,-8.722167462E-3,-5.564216990E-3,1.818997562E-1,1.821937376E-1
1.422278917E1,-3.768824041E-2,-1.801023260E-2,1.766272634E-1,1.814992070E-1
1.423276817E1,-4.672328010E-2,-2.651477046E-2,1.695115715E-1,1.778208954E-1
1.424274717E1,-3.261978924E-2,-4.033771157E-2,1.605876088E-1,1.687588864E-1
1.425272617E1,2.542725299E-3,-6.014683098E-2,1.553108096E-1,1.665699682E-1
1.426270517E1,4.519703984E-2,-7.641528547E-2,1.496585608E-1,1.740107844E-1
1.427268317E1,8.141177148E-2,-8.183881640E-2,1.475669146E-1,1.873538435E-1
1.428266217E1,9.768599272E-2,-8.442348242E-2,1.510562003E-1,1.987155082E-1
1.429264117E1,9.716294706E-2,-8.755535632E-2,1.583346277E-1,2.053690168E-1
1.430262017E1,8.288398385E-2,-7.920874655E-2,1.731362641E-1,2.076534282E-1
1.431259917E1,6.145725772E-2,-6.821414828E-2,1.876395792E-1,2.088989618E-1
1.432257817E1,3.476885334E-2,-4.083438963E-2,2.029947340E-1,2.099599547E-1
1.433255717E1,4.826668184E-3,-8.209601045E-3,2.130335122E-1,2.132462699E-1
1.434253617E1,-2.723426372E-2,3.618016839E-2,2.201381326E-1,2.247476521E-1
1.435251417E1,-6.084202603E-2,7.935373485E-2,2.405014634E-1,2.604605945E-1
1.436249317E1,-9.430308640E-2,1.184683144E-1,2.570008636E-1,2.982905588E-1
1.437247217E1,-1.268801987E-1,1.387426853E-1,2.685605884E-1,3.278306074E-1
1.438245117E1,-1.509543657E-1,1.553655416E-1,2.826314569E-1,3.560985993E-1
1.439243017E1,-1.625910401E-1,1.592865139E-1,2.924806178E-1,3.706115913E-1
1.440240917E1,-1.552122533E-1,1.403073072E-1,2.911497653E-1,3.585319649E-1
1.441238817E1,-1.327175945E-1,1.101496667E-1,2.784422338E-1,3.275316573E-1
1.442236717E1,-1.018334180E-1,7.346875221E-2,2.641630471E-1,2.924890049E-1
1.443234517E1,-5.732081085E-2,2.528098226E-2,2.289943993E-1,2.374094319E-1
1.444232417E1,-9.956261143E-3,-2.635072172E-2,1.742229462E-1,1.764854743E-1
1.445230317E1,3.767517209E-2,-6.298383325E-2,1.110293344E-1,1.330935571E-1
1.446228217E1,7.593510300E-2,-7.025998831E-2,6.219660863E-2,1.207104964E-1
1.447226117E1,1.032061428E-1,-5.181466788E-2,3.088821843E-2,1.195422509E-1
1.448224017E1,1.324728131E-1,-1.138581894E-2,1.836804673E-2,1.342239481E-1
1.449221917E1,1.647982746E-1,2.660044655E-2,1.326516550E-2,1.674575161E-1
1.450219817E1,1.805323809E-1,5.752094090E-2,3.132839501E-2,1.920470451E-1
1.451217617E1,1.761126071E-1,7.810904086E-2,5.717676878E-2,2.009623237E-1
1.452215517E1,1.483300477E-1,8.604346216E-2,8.530612290E-2,1.915265387E-1
1.453213417E1,1.115890816E-1,7.490026206E-2,1.077347323E-1,1.722467560E-1
1.454211317E1,6.969778985E-2,4.055847228E-2,1.231166646E-1,1.471750138E-1
1.455209217E1,2.757350914E-2,-4.731246736E-3,1.269747764E-1,1.300202943E-1
1.456207117E1,-1.844758913E-2,-5.238565058E-2,1.318201572E-1,1.430423845E-1
1.457205017E1,-6.000142545E-2,-9.449421614E-2,1.380101442E-1,1.776967300E-1
1.458202917E1,-9.140583128E-2,-1.437021047E-1,1.446794420E-1,2.234669144E-1
1.459200717E1,-1.180643439E-1,-1.913298219E-1,1.579158753E-1,2.747429958E-1
1.460198617E1,-1.528935134E-1,-2.083625942E-1,1.767379791E-1,3.130937725E-1
1.461196517E1,-2.050531209E-1,-2.148260921E-1,1.958219260E-1,3.557291932E-1
1.462194417E1,-2.567756176E-1,-1.747770160E-1,2.203961015E-1,3.808610832E-1
1.463192317E1,-3.004211187E-1,-1.506391913E-1,2.415477186E-1,4.138723413E-1
1.464190217E1,-3.221778274E-1,-1.237497777E-1,2.451642752E-1,4.233415663E-1
1.465188117E1,-3.231946230E-1,-1.007030457E-1,2.448327094E-1,4.177785578E-1
1.466186017E1,-2.994331419E-1,-8.338598162E-2,2.449944913E-1,3.957723199E-1
1.467183817E1,-2.535689771E-1,-6.111183390E-2,2.283702493E-1,3.466768714E-1
1.468181717E1,-1.927542686E-1,-3.480019793E-2,1.979046464E-1,2.784448077E-1
1.469179617E1,-1.314957142E-1,-1.560360007E-2,1.522570103E-1,2.017840241E-1
1.470177517E1,-7.911748439E-2,7.371755317E-3,9.242801368E-2,1.218887067E-1
1.471175417E1,-3.778415918E-2,4.006472230E-2,2.569585666E-2,6.077089524E-2
1.472173317E1,-1.728238724E-2,7.496131957E-2,-3.440571949E-2,8.427119243E-2
1.473171217E1,-7.993813604E-3,1.052361354E-1,-8.725695312E-2,1.369391147E-1
1.474169117E1,-5.579340272E-3,1.269818395E-1,-1.245381832E-1,1.779473958E-1
1.475166917E1,-1.363992970E-2,1.378957480E-1,-1.474749297E-1,2.023614091E-1
1.476164817E1,-2.723168582E-2,1.406949908E-1,-1.522843540E-1,2.091104244E-1
1.477162717E1,-4.705359042E-2,1.371577680E-1,-1.473417878E-1,2.067266217E-1
1.478160617E1,-7.885440439E-2,1.206793413E-1,-1.405569911E-1,2.013399817E-1
1.479158517E1,-1.186673343E-1,9.387356043E-2,-1.219798476E-1,1.943534532E-1
1.480156417E1,-1.536370367E-1,5.463214591E-2,-1.013376862E-1,1.919852522E-1
1.481154317E1,-1.749740243E-1,8.430028334E-3,-7.086019963E-2,1.889659822E-1
1.482152217E1,-1.723087430E-1,-4.158293456E-2,-3.962040693E-2,1.816293479E-1
1.483150017E1,-1.450670063E-1,-8.743724972E-2,-1.763760857E-2,1.702961955E-1
1.484147917E1,-1.040564328E-1,-1.140357628E-1,-1.118082460E-2,1.547801901E-1
1.485145817E1,-6.629920006E-2,-1.289292276E-1,-1.454732660E-2,1.457050252E-1
1.486143717E1,-5.044531450E-2,-1.436531097E-1,-2.754423954E-2,1.547243704E-1
1.487141617E1,-4.989350960E-2,-1.261345744E-1,-3.708527982E-2,1.406222285E-1
1.488139517E1,-5.553494021E-2,-9.673553705E-2,-4.682648927E-2,1.209736079E-1
1.489137417E1,-5.353250727E-2,-6.270886213E-2,-5.914067850E-2,1.014679781E-1
1.490135317E1,-3.650002182E-2,-3.061757237E-2,-7.655291259E-2,9.016671091E-2
1.491133117E1,-1.119200327E-2,9.264064021E-3,-9.337823093E-2,9.450173454E-2
1.492131017E1,1.661247946E-2,4.843090847E-2,-1.074860469E-1,1.190578752E-1
1.493128917E1,4.662524164E-2,7.233730704E-2,-1.228476912E-1,1.499938478E-1
1.494126817E1,8.270336688E-2,6.835900992E-2,-1.426101327E-1,1.784669467E-1
1.495124717E1,1.240638569E-1,4.519030452E-2,-1.595350504E-1,2.070879922E-1
1.496122617E1,1.633782536E-1,1.741713285E-2,-1.624034047E-1,2.310209430E-1
1.497120517E1,1.878527105E-1,1.267564110E-2,-1.528629065E-1,2.425208875E-1
1.498118317E1,1.945547909E-1,1.785162650E-2,-1.368388087E-1,2.385269519E-1
1.499116217E1,1.871051192E-1,8.759595454E-3,-1.204371899E-1,2.226885109E-1
1.500114117E1,1.715269536E-1,-1.161891408E-2,-1.033096164E-1,2.005726098E-1
1.501111979E1,1.572436243E-1,-5.334052816E-2,-8.573860675E-2,1.868739629E-1
1.502109879E1,1.463377029E-1,-9.614544362E-2,-7.757502794E-2,1.915112388E-1
1.503107779E1,1.324823499E-1,-1.313886493E-1,-6.276012957E-2,1.968587922E-1
1.504105679E1,1.198728383E-1,-1.608163863E-1,-3.204234317E-2,2.031209473E-1
1.505103579E1,1.089871675E-1,-1.678932011E-1,1.780590601E-2,2.009561642E-1
1.506101379E1,1.038190722E-1,-1.589204818E-1,8.060858399E-2,2.062325462E-1
1.507099279E1,1.041745991E-1,-1.596757472E-1,1.371616125E-1,2.348659176E-1
1.508097179E1,1.079282686E-1,-1.445381492E-1,1.741406918E-1,2.507284752E-1
1.509095079E1,1.039172783E-1,-1.257559359E-1,1.709166765E-1,2.362749806E-1
1.510092979E1,9.931240231E-2,-1.099656522E-1,1.277589500E-1,1.956469965E-1
1.511090879E1,9.141027182E-2,-9.876013547E-2,5.861343816E-2,1.467819379E-1
1.512088779E1,7.789260149E-2,-8.318977058E-2,-1.913961209E-2,1.155600279E-1
1.513086679E1,5.550500751E-2,-5.582259595E-2,-8.968674392E-2,1.193343208E-1
1.514084579E1,1.834970713E-2,-2.000194415E-2,-1.500268281E-1,1.524625812E-1
1.515082379E1,-2.555356920E-2,2.077184990E-2,-1.893241554E-1,1.921668298E-1
1.516080279E1,-7.417757809E-2,5.708485097E-2,-2.103476822E-1,2.302327968E-1
1.517078179E1,-1.210843623E-1,7.778027654E-2,-2.245950699E-1,2.667473329E-1
1.518076079E1,-1.612903774E-1,7.440771163E-2,-2.328522801E-1,2.928673381E-1
1.519073979E1,-1.926171333E-1,5.292026699E-2,-2.357380688E-1,3.089892422E-1
1.520071879E1,-2.060360163E-1,1.727292314E-2,-2.303285301E-1,3.095164385E-1
1.521069779E1,-1.903811693E-1,-2.565936558E-2,-2.223638147E-1,2.938521036E-1
1.522067579E1,-1.465421021E-1,-5.199809372E-2,-2.114474773E-1,2.624660456E-1
1.523065479E1,-7.581733167E-2,-6.463079900E-2,-2.020217478E-1,2.252514030E-1
1.524063379E1,4.367462359E-3,-5.116858333E-2,-2.016057223E-1,2.080436635E-1
1.525061279E1,7.894209772E-2,-1.049013250E-2,-2.023460865E-1,2.174530671E-1
1.526059179E1,1.412689388E-1,4.477991164E-2,-1.990321279E-1,2.481450009E-1
1.527057079E1,1.824952066E-1,9.629769623E-2,-1.924360096E-1,2.821513150E-1
1.528054979E1,2.060577720E-1,1.483097076E-1,-1.881200373E-1,3.159821565E-1
1.529052879E1,2.032313645E-1,1.944492310E-1,-1.847045273E-1,3.364955473E-1
1.530050679E1,1.785474122E-1,2.149313390E-1,-1.826527864E-1,3.338213583E-1
1.531048579E1,1.469908208E-1,2.122346312E-1,-1.866472661E-1,3.185703094E-1
1.532046479E1,1.073474512E-1,2.026543766E-1,-1.941216588E-1,3.004587993E-1
1.533044379E1,5.697323009E-2,1.941152066E-1,-1.926129758E-1,2.793320978E-1
1.534042279E1,-1.379731111E-4,1.802054495E-1,-1.911199391E-1,2.626801366E-1
1.535040179E1,-5.964178219E-2,1.646888107E-1,-1.918049008E-1,2.597473128E-1
1.536038079E1,-1.168443561E-1,1.376557201E-1,-2.017471641E-1,2.707464110E-1
1.537035979E1,-1.805754006E-1,9.975228459E-2,-2.169178575E-1,2.993515500E-1
1.538033779E1,-2.457570881E-1,5.984807760E-2,-2.263500541E-1,3.394299423E-1
1.539031679E1,-3.004325926E-1,2.522885054E-2,-2.217443734E-1,3.742549997E-1
1.540029579E1,-3.257126510E-1,1.311532222E-3,-1.961362213E-1,3.802102950E-1
1.541027479E1,-3.218236268E-1,-7.967187092E-3,-1.599252224E-1,3.594579246E-1
1.542025379E1,-2.952271402E-1,-4.420388956E-3,-1.233400255E-1,3.199865092E-1
1.543023279E1,-2.542754710E-1,-6.720028818E-3,-9.827488661E-2,2.726887003E-1
1.544021179E1,-2.072605640E-1,-1.726674661E-2,-7.995068282E-2,2.228165021E-1
1.545019079E1,-1.617037207E-1,-2.810288221E-2,-7.647073269E-2,1.810680486E-1
1.546016879E1,-1.275175065E-1,-3.262939304E-2,-7.665295154E-2,1.523189638E-1
1.547014779E1,-1.078644469E-1,-4.422905296E-2,-7.848493755E-2,1.405376585E-1
1.548012679E1,-1.018446609E-1,-5.773780495E-2,-7.884781063E-2,1.411487383E-1
1.549010579E1,-9.903795272E-2,-6.992390007E-2,-7.936339825E-2,1.449014039E-1
1.550008479E1,-9.672690928E-2,-7.321616262E-2,-8.017003536E-2,1.454095458E-1
1.551006379E1,-8.621248603E-2,-6.954792887E-2,-7.980731130E-2,1.365236759E-1
1.552004279E1,-7.733207941E-2,-5.571839586E-2,-8.289545774E-2,1.263188310E-1
1.553002179E1,-6.480802596E-2,-3.456224501E-2,-8.009674400E-2,1.086743641E-1
1.553999979E1,-5.110452324E-2,-1.807181910E-2,-7.983644307E-2,9.649932944E-2
1.554997879E1,-3.747792542E-2,3.926423378E-3,-8.821102232E-2,9.592286564E-2
1.555995779E1,-2.212079242E-2,2.629884146E-2,-9.127551317E-2,9.753039436E-2
1.556993679E1,-2.407009946E-3,3.215486556E-2,-8.878545463E-2,9.445944119E-2
1.557991579E1,2.072015032E-2,3.757007048E-2,-8.586869389E-2,9.599097570E-2
1.558989479E1,4.211811721E-2,3.553355113E-2,-8.557920903E-2,1.017859031E-1
1.559987379E1,6.201356277E-2,5.592291430E-2,-8.950835466E-2,1.224124171E-1
1.560985279E1,8.791227639E-2,6.434835494E-2,-8.523211628E-2,1.383249535E-1
1.561983079E1,1.151196137E-1,5.718564987E-2,-7.497217506E-2,1.488070934E-1
1.562980979E1,1.449462175E-1,6.099929661E-2,-5.489033833E-2,1.665631094E-1
1.563978879E1,1.804453731E-1,7.853900641E-2,-2.157805301E-2,1.979760606E-1
1.564976779E1,2.125806808E-1,1.064092517E-1,1.629902050E-2,2.382837233E-1
1.565974679E1,2.443018258E-1,1.341938823E-1,6.428557634E-2,2.860489739E-1
1.566972579E1,2.827517390E-1,1.578656584E-1,1.054013222E-1,3.405577055E-1
1.567970479E1,3.293102384E-1,1.584364474E-1,1.276980639E-1,3.871099798E-1
1.568968379E1,3.844976127E-1,1.154231951E-1,1.179769859E-1,4.184250200E-1
1.569966179E1,4.248540401E-1,4.787836596E-2,9.696849436E-2,4.384018502E-1
1.570964079E1,4.364257455E-1,-2.097420022E-2,7.664191723E-2,4.436004192E-1
1.571961979E1,4.051383734E-1,-7.120487839E-2,5.982483923E-2,4.156756520E-1
1.572959879E1,3.402824104E-1,-8.421149105E-2,5.089632422E-2,3.542232768E-1
1.573957779E1,2.597742677E-1,-8.567522466E-2,4.650244489E-2,2.774624148E-1
1.574955679E1,1.850472838E-1,-7.365025580E-2,3.936597332E-2,2.030185638E-1
1.575953579E1,1.385961175E-1,-5.120047927E-2,3.384028748E-2,1.515768383E-1
1.576951479E1,1.279125810E-1,-1.343525574E-2,4.661360756E-2,1.368026421E-1
1.577949279E1,1.645702273E-1,2.886193432E-2,7.356421649E-2,1.825597571E-1
1.578947179E1,2.366566658E-1,5.587624013E-2,1.032848284E-1,2.641898701E-1
1.579945079E1,3.258683085E-1,6.298740953E-2,1.306203306E-1,3.566780608E-1
1.580942979E1,4.009726644E-1,4.883005098E-2,1.509010941E-1,4.312013354E-1
1.581940879E1,4.391373694E-1,2.696942538E-2,1.504020989E-1,4.649621172E-1
1.582938779E1,4.329905510E-1,1.237983070E-2,1.402213573E-1,4.552978218E-1
