"Time (s)","Gyroscope x (rad/s)","Gyroscope y (rad/s)","Gyroscope z (rad/s)","Absolute (rad/s)"
1.096374996E-3,1.291023195E-1,4.509534314E-2,3.707087785E-2,1.416871513E-1
1.112037501E-2,6.480641663E-2,3.667575866E-2,4.499964416E-2,8.700546468E-2
2.114437497E-2,2.285504341E-2,-2.278500609E-2,3.003555723E-2,4.408678044E-2
3.116837499E-2,2.740986180E-3,-8.752351999E-2,8.094305173E-3,8.793973694E-2
4.119237501E-2,1.876123250E-3,-1.141861305E-1,-5.699276924E-3,1.143436661E-1
5.121637497E-2,7.331342436E-3,-1.097397134E-1,-6.663873792E-3,1.101860267E-1
6.124037498E-2,1.024398766E-2,-7.211759686E-2,1.654275693E-4,7.284170802E-2
7.126437500E-2,1.213483326E-2,-3.247458115E-2,8.585277945E-3,3.571497720E-2
8.128837496E-2,1.505902968E-2,2.556889085E-3,1.890625432E-2,2.430552425E-2
9.131145832E-2,1.854004897E-2,2.394393645E-2,2.007564716E-2,3.633286553E-2
1.013354583E-1,2.678815089E-2,2.590393648E-2,7.874695584E-3,3.808713410E-2
1.113594583E-1,2.662170306E-2,1.858210750E-2,-1.308682840E-3,3.249188273E-2
1.213834583E-1,2.036012523E-2,1.606036676E-3,-2.341561252E-3,2.055716328E-2
1.314074583E-1,-5.137304543E-4,-1.439476851E-2,3.484902903E-3,1.481950835E-2
1.414314583E-1,-2.685664594E-2,-1.881677285E-2,1.120667718E-2,3.465458101E-2
1.514554583E-1,-5.227252468E-2,-5.239178892E-3,1.512977853E-2,5.466969939E-2
1.614794583E-1,-6.445020437E-2,1.687466167E-2,1.165467873E-2,6.763441865E-2
1.715034583E-1,-6.640256941E-2,2.392431721E-2,1.095613092E-2,7.142626256E-2
1.815264583E-1,-5.866396800E-2,2.274164930E-2,9.861145169E-3,6.368583781E-2
1.915504583E-1,-4.965715483E-2,2.043641731E-2,7.964974269E-3,5.428555050E-2
2.015744583E-1,-3.845000640E-2,8.295357227E-3,9.856618941E-3,4.055081849E-2
2.115984583E-1,-3.262141347E-2,-6.612751633E-3,9.155409411E-3,3.452110401E-2
2.216224583E-1,-2.936113067E-2,-1.723836176E-2,1.701435540E-3,3.409005710E-2
2.316464583E-1,-2.724738047E-2,-2.454794012E-2,-5.995356478E-4,3.667942951E-2
2.416704583E-1,-3.181739151E-2,-3.090056032E-2,-5.263527855E-4,4.435615040E-2
2.516944583E-1,-3.840605170E-2,-3.250458091E-2,2.634553239E-3,5.038366261E-2
2.617184583E-1,-4.382086545E-2,-2.365505882E-2,-1.619529910E-3,4.982422035E-2
2.717424583E-1,-3.915154561E-2,-1.592150517E-2,-6.547177210E-3,4.276918728E-2
2.817654583E-1,-3.329084069E-2,-1.588511467E-2,-5.630936939E-3,3.731386327E-2
2.917894583E-1,-2.718447521E-2,-2.104472369E-2,-1.141113695E-3,3.439735787E-2
3.018134583E-1,-2.227687649E-2,-1.106389053E-2,7.548564579E-3,2.599326311E-2
3.118374583E-1,-2.045394294E-2,3.398405155E-3,1.117312722E-2,2.355316775E-2
3.218614583E-1,-2.298074216E-2,7.281649159E-4,1.044096984E-2,2.525190261E-2
3.318854583E-1,-3.292498738E-2,-4.155806266E-3,6.975398865E-3,3.391138022E-2
3.419094583E-1,-4.572834074E-2,6.482093595E-4,4.845459014E-3,4.598890949E-2
3.519334583E-1,-4.942774028E-2,9.448358789E-3,5.368237384E-3,5.060821045E-2
3.619574583E-1,-4.518918321E-2,7.637307514E-3,2.394813579E-3,4.589254707E-2
3.719814583E-1,-3.441775963E-2,7.474436425E-4,-4.913433455E-3,3.477474196E-2
3.820044583E-1,-2.296346612E-2,-1.063290518E-2,-4.205883481E-3,2.565285373E-2
3.920284583E-1,-1.531300414E-2,-1.748948172E-2,-5.291234702E-4,2.325188247E-2
4.020524583E-1,-1.190091483E-2,-7.817429490E-3,-3.677617293E-3,1.470608196E-2
4.120764583E-1,-1.011952572E-2,2.776891924E-3,-3.283469239E-3,1.099532172E-2
4.221004583E-1,-6.382692140E-3,4.014961887E-3,-1.005685143E-2,1.256976287E-2
4.321244583E-1,-3.199681873E-3,2.737531904E-4,-1.851105504E-2,1.878755076E-2
4.421484583E-1,-2.823355026E-4,-2.768763574E-3,-2.926745266E-2,2.939948214E-2
4.521724583E-1,4.448237363E-3,1.948227407E-3,-4.354519024E-2,4.381513436E-2
4.621964583E-1,4.042258486E-3,4.212147556E-3,-5.026158318E-2,5.059949391E-2
4.722204583E-1,-4.206616431E-3,-5.622107536E-3,-5.325816944E-2,5.371904995E-2
4.822434583E-1,-1.629577577E-2,-1.956573129E-2,-4.943408445E-2,5.560664397E-2
4.922674583E-1,-2.461975254E-2,-2.310533822E-2,-5.346744135E-2,6.323571897E-2
5.022914583E-1,-2.000305615E-2,-2.185026929E-2,-6.016534194E-2,6.706284288E-2
5.123154583E-1,-9.395153262E-3,-1.739213802E-2,-6.799690425E-2,7.081196479E-2
5.223394583E-1,1.136976643E-3,-1.212142315E-2,-7.237908244E-2,7.339586630E-2
5.323634583E-1,7.464913186E-3,-1.263168454E-2,-7.402811199E-2,7.546817706E-2
5.423874583E-1,9.541234002E-3,-1.629551686E-2,-6.499082595E-2,6.767855254E-2
5.524114583E-1,1.393025741E-3,-1.935202628E-2,-5.193627998E-2,5.544202937E-2
5.624354583E-1,-1.612498797E-2,-1.362021640E-2,-3.663609922E-2,4.228154796E-2
5.724584583E-1,-3.021683730E-2,1.589788590E-4,-2.764606848E-2,4.095592306E-2
5.824824583E-1,-3.775076568E-2,1.835845597E-2,-2.031135373E-2,4.663372498E-2
5.925064583E-1,-3.946983814E-2,2.812400088E-2,-1.128297113E-2,4.976075749E-2
6.025304583E-1,-3.549439088E-2,3.083089739E-2,-3.905050922E-3,4.717674682E-2
6.125544583E-1,-3.460622579E-2,2.729634941E-2,2.282537520E-3,4.413492417E-2
6.225784583E-1,-3.813925013E-2,2.773853950E-2,9.818268009E-3,4.817081441E-2
6.326024583E-1,-4.452417791E-2,3.953900561E-2,1.883706450E-2,6.245454653E-2
6.426264583E-1,-4.451600835E-2,5.565980077E-2,2.507141419E-2,7.555305573E-2
6.526504583E-1,-4.127174616E-2,5.389492214E-2,2.450735681E-2,7.217084038E-2
6.626744583E-1,-3.151356429E-2,2.714449912E-2,1.593123376E-2,4.453911512E-2
6.726974583E-1,-3.303982317E-2,-1.286443695E-2,7.812855765E-3,3.630653342E-2
6.827214583E-1,-3.894003853E-2,-3.128092363E-2,4.791605752E-3,5.017750761E-2
6.927454583E-1,-4.408419877E-2,-1.198392734E-2,7.102963049E-3,4.623292312E-2
7.027694583E-1,-3.671197966E-2,1.084957737E-2,1.522171870E-2,4.119688701E-2
7.127934583E-1,-1.767837070E-2,2.173285186E-2,1.754532754E-2,3.305571296E-2
7.228174583E-1,5.625088234E-3,1.098779496E-2,2.174246870E-2,2.500216392E-2
7.328414583E-1,3.266176581E-2,1.360967755E-2,2.465143986E-2,4.312432905E-2
7.428654583E-1,5.302308872E-2,2.093102597E-2,3.028487042E-2,6.455020652E-2
7.528894583E-1,5.673873052E-2,2.077602968E-2,3.748472780E-2,7.110577873E-2
7.629124583E-1,4.293780029E-2,6.498900242E-3,4.199852422E-2,6.041329684E-2
7.729364583E-1,1.961117238E-2,-1.019112952E-2,4.008557647E-2,4.577456329E-2
7.829604583E-1,-3.509946633E-3,-2.987387590E-2,3.020140715E-2,4.262502998E-2
7.929844583E-1,-2.489007078E-2,-4.844250157E-2,1.567892544E-2,5.667468822E-2
8.030084583E-1,-3.312381357E-2,-5.925491452E-2,1.528857276E-3,6.790190958E-2
8.130324583E-1,-3.094720840E-2,-4.548237845E-2,-3.851526882E-3,5.514717325E-2
8.230564583E-1,-2.039308846E-2,-6.580295973E-3,4.717353266E-3,2.194155359E-2
8.330804583E-1,-8.015447529E-4,3.228427842E-2,1.664352231E-2,3.633075752E-2
8.431044583E-1,2.113256231E-2,4.919213802E-2,2.293300256E-2,5.824409188E-2
8.531284583E-1,3.558820114E-2,5.875368416E-2,2.248319611E-2,7.227731020E-2
8.631514583E-1,4.109079018E-2,5.984156206E-2,2.720817551E-2,7.752257995E-2
8.731754583E-1,3.438335285E-2,4.381572455E-2,2.953444794E-2,6.304217863E-2
8.831994583E-1,1.486478653E-2,3.063025884E-2,3.356561810E-2,4.781030594E-2
8.932234583E-1,-1.141342241E-2,3.221403807E-2,3.773213550E-2,5.090898261E-2
9.032474583E-1,-3.379151225E-2,2.797475085E-2,4.016158357E-2,5.947609419E-2
9.132714583E-1,-4.765566438E-2,1.851999760E-2,4.131819308E-2,6.573618287E-2
9.232954583E-1,-4.740433022E-2,1.549406163E-2,3.427493200E-2,6.051452250E-2
9.333194583E-1,-3.063573316E-2,1.544692367E-2,2.521645464E-2,4.257963341E-2
9.433434583E-1,-1.474861801E-2,1.168012433E-2,2.373738214E-2,3.028878255E-2
9.533664583E-1,-3.276784439E-3,4.133523908E-3,2.370196208E-2,2.428181094E-2
9.633904583E-1,3.417973872E-3,3.535300959E-3,1.689274050E-2,1.759390747E-2
9.734144583E-1,8.191690780E-3,1.434880029E-2,1.334780641E-2,2.124042852E-2
9.834384583E-1,1.695110090E-2,2.604498342E-2,1.175997779E-2,3.322616530E-2
9.934624583E-1,2.695579827E-2,2.403216623E-2,7.264561020E-3,3.683658400E-2
1.003486458E0,2.700160444E-2,2.040893398E-2,7.857381366E-3,3.474693757E-2
1.013510458E0,2.203134634E-2,7.792475633E-3,3.033330664E-3,2.356488898E-2
1.023534458E0,1.064802986E-2,-4.488660488E-4,-3.786488902E-3,1.131015114E-2
1.033558458E0,-2.387078479E-3,4.382329062E-4,-7.974309847E-3,8.335454953E-3
1.043581458E0,-8.399368264E-3,-1.326879114E-2,-6.502333563E-3,1.699678050E-2
1.053605458E0,-1.092590950E-2,-3.237004578E-2,-4.159551114E-3,3.441652551E-2
1.063629458E0,-9.983902797E-3,-3.055139072E-2,-6.270743906E-3,3.274733606E-2
1.073653458E0,-6.073051598E-3,-1.957810298E-2,-2.201433526E-3,2.061626497E-2
1.083678208E0,6.419017445E-4,-7.804859430E-3,1.680179033E-3,8.009423834E-3
1.093702208E0,7.088349201E-3,-5.834323820E-4,4.308452830E-3,8.315518837E-3
1.103726208E0,1.045433152E-2,3.917532973E-3,5.953913089E-3,1.265263582E-2
1.113750208E0,1.071585435E-2,9.760241956E-3,3.585031722E-3,1.493131977E-2
1.123774208E0,1.138877682E-2,1.000291668E-2,-7.613026537E-4,1.517702742E-2
1.133798208E0,1.649112627E-2,2.460045274E-3,-6.561667658E-3,1.791827421E-2
1.143821208E0,2.027309313E-2,-3.560872050E-3,-9.632930160E-3,2.272600841E-2
1.153845208E0,2.150161006E-2,-3.666599514E-3,-5.981470458E-3,2.261727605E-2
1.163869208E0,2.341756038E-2,1.132313279E-3,-4.640353844E-3,2.389973120E-2
1.173893208E0,2.703226916E-2,2.223676536E-3,-5.552220158E-3,2.768601564E-2
1.183917208E0,3.103183955E-2,3.100947710E-3,-3.225947730E-3,3.135279384E-2
1.193941208E0,3.146353737E-2,1.044408139E-2,-1.403812785E-3,3.318137595E-2
1.203965208E0,2.583117783E-2,7.934447378E-3,-1.257286873E-3,2.705154291E-2
1.213989208E0,1.889524236E-2,3.052607179E-3,2.852236386E-3,1.935158513E-2
1.224013208E0,2.782030962E-3,-6.364931352E-3,2.685682382E-3,7.447478584E-3
1.234036208E0,-5.986959208E-3,-2.062562667E-2,-2.221991308E-3,2.159160488E-2
1.244060208E0,-1.246861368E-2,-2.191602252E-2,-4.003221169E-3,2.553045535E-2
1.254084208E0,-1.003581472E-2,-2.149178088E-2,-2.228756901E-3,2.382397069E-2
1.264108208E0,-9.522796609E-4,-1.825372875E-2,-8.329404518E-4,1.829752004E-2
1.274132208E0,9.570935741E-3,-9.978489019E-3,-1.256116666E-3,1.388347518E-2
1.284156208E0,2.221434377E-2,-9.575458243E-3,-7.737610023E-3,2.539758017E-2
1.294180208E0,3.920025378E-2,-7.565037813E-3,-1.560831629E-2,4.286617817E-2
1.304204208E0,4.796283692E-2,2.462072764E-3,-1.988364942E-2,5.197937131E-2
1.314228208E0,5.184279382E-2,1.118179504E-2,-1.612033509E-2,5.543079482E-2
1.324251208E0,4.581783712E-2,1.780484430E-2,-6.515434943E-3,4.958565893E-2
1.334275208E0,3.513722867E-2,2.107627131E-2,2.048225608E-3,4.102473984E-2
1.344299208E0,1.865628362E-2,1.114339381E-2,-3.968067467E-3,2.209021737E-2
1.354323208E0,1.918315422E-3,-3.349528881E-3,-1.195834950E-2,1.256588240E-2
1.364347208E0,-1.043234766E-2,-1.699108258E-2,-1.252038218E-2,2.354337985E-2
1.374371208E0,-1.473175362E-2,-2.124281786E-2,-1.051182672E-2,2.790663678E-2
1.384395208E0,-1.061851531E-2,-2.240855014E-3,-9.091608226E-4,1.089040275E-2
1.394419208E0,1.702066744E-3,2.151081339E-2,6.419858895E-3,2.251281217E-2
1.404443208E0,1.580279134E-2,2.742687985E-2,3.117647488E-3,3.180694387E-2
1.414466208E0,2.257494442E-2,2.692487463E-2,7.503638044E-4,3.514455912E-2
1.424490208E0,2.657408826E-2,2.789453976E-2,5.552252289E-3,3.892447843E-2
1.434514208E0,2.642228827E-2,1.966004446E-2,1.089322194E-2,3.468885916E-2
1.444538208E0,2.339095622E-2,8.014367893E-3,9.208669886E-3,2.638496782E-2
1.454562208E0,2.065269276E-2,-5.341916811E-3,-1.479660394E-3,2.138361963E-2
1.464586208E0,1.887123287E-2,-1.383863017E-2,-1.417835988E-2,2.736159725E-2
1.474610208E0,1.843793504E-2,-1.700832322E-2,-1.725963689E-2,3.044890102E-2
1.484634208E0,1.689359546E-2,-1.237930264E-2,-1.276949421E-2,2.452958792E-2
1.494658208E0,1.498410944E-2,2.588727511E-3,-8.598375134E-4,1.523037644E-2
1.504682208E0,1.546978578E-2,2.143499814E-2,1.079111733E-2,2.855208627E-2
1.514705208E0,1.944881305E-2,3.156353533E-2,1.843971573E-2,4.140695845E-2
1.524729208E0,2.316346206E-2,3.505376726E-2,1.969401538E-2,4.640222857E-2
1.534753208E0,1.776363701E-2,3.412565589E-2,1.919706911E-2,4.299575156E-2
1.544777208E0,9.663846344E-3,2.633688226E-2,1.234357990E-2,3.064939246E-2
1.554801208E0,-3.889512736E-3,1.179655548E-2,5.495794583E-3,1.358273863E-2
1.564825208E0,-1.813635230E-2,5.102012772E-3,3.640968353E-4,1.884384185E-2
1.574849208E0,-2.916689962E-2,1.736309845E-3,-2.483621472E-3,2.932390119E-2
1.584873208E0,-3.339330107E-2,4.479657859E-3,-6.522304378E-3,3.431793038E-2
1.594897208E0,-2.696097083E-2,4.578727297E-3,-9.039791301E-3,2.880237002E-2
1.604920208E0,-1.349015534E-2,-4.042500630E-3,-8.708865382E-3,1.655809284E-2
1.614944208E0,3.930379637E-3,-6.893680431E-3,-1.265380532E-2,1.493618100E-2
1.624968208E0,1.411826909E-2,-4.008970223E-3,-1.732153073E-2,2.270314496E-2
1.634992208E0,2.113410085E-2,-2.649426693E-3,-2.009121701E-2,2.928014142E-2
1.645016208E0,2.350296266E-2,-7.266884670E-3,-2.236273512E-2,3.324588379E-2
1.655040208E0,2.207577415E-2,-3.657501889E-3,-2.321867459E-2,3.224630171E-2
1.665064208E0,1.485356875E-2,6.460448727E-3,-1.833725907E-2,2.446673195E-2
1.675088208E0,6.839051377E-3,1.128156856E-2,-1.635560021E-2,2.101314044E-2
1.685112208E0,-3.836144228E-3,7.135413587E-3,-2.076968178E-2,2.229371685E-2
1.695135208E0,-1.122109033E-2,-1.200813567E-3,-2.743610740E-2,2.966639194E-2
1.705159208E0,-1.712002419E-2,-6.023024209E-3,-2.599107660E-2,3.170028567E-2
1.715183208E0,-1.747102849E-2,-6.175889634E-3,-1.852517016E-2,2.620229721E-2
1.725207208E0,-1.790648140E-2,5.851563998E-3,-7.171103265E-3,2.015707319E-2
1.735231208E0,-8.768377826E-3,2.324360423E-2,1.003203448E-3,2.486274330E-2
1.745255208E0,6.901960820E-3,2.657045051E-2,1.986709423E-3,2.752404255E-2
1.755279208E0,2.137038112E-2,1.479315292E-2,-4.849092569E-3,2.643944518E-2
1.765303208E0,2.557584085E-2,4.966827109E-3,-1.699385047E-2,3.110601164E-2
1.775327208E0,2.383972518E-2,-3.023988102E-3,-2.491169423E-2,3.461314071E-2
1.785350208E0,1.652681269E-2,-8.657054044E-3,-3.067845479E-2,3.590609573E-2
1.795374208E0,1.047238149E-2,-1.480789110E-2,-3.122307174E-2,3.610851176E-2
1.805398208E0,5.301641300E-3,-1.645362936E-2,-2.666070312E-2,3.177455602E-2
1.815422208E0,2.932759235E-3,-1.542165503E-2,-1.831328869E-2,2.412063563E-2
1.825446208E0,3.021455836E-3,-1.578054158E-3,-1.662654988E-2,1.697237789E-2
1.835470208E0,3.444632050E-3,9.899903089E-3,-1.836372912E-2,2.114474210E-2
1.845494208E0,5.549308844E-3,9.670803323E-3,-2.029276453E-2,2.315416934E-2
1.855518208E0,3.888561623E-3,3.366568126E-3,-2.067679167E-2,2.130690982E-2
1.865542208E0,-4.038331099E-3,-1.839001197E-3,-1.692125574E-2,1.749339702E-2
1.875565208E0,-1.294420753E-2,-6.786355749E-3,-1.061329246E-2,1.806236722E-2
1.885589208E0,-2.149540558E-2,-3.945922479E-3,-5.963521544E-3,2.265361681E-2
1.895613208E0,-2.043520100E-2,1.425407245E-3,-2.318719169E-3,2.061566600E-2
1.905637208E0,-1.170663070E-2,4.685588647E-3,-4.994874354E-3,1.356276937E-2
1.915661208E0,-2.958412748E-3,9.129547980E-4,-2.537043067E-3,4.002784028E-3
1.925685208E0,4.939684644E-3,-1.626506681E-3,-4.522111267E-3,6.891697808E-3
1.935709208E0,8.546404541E-3,-4.020688124E-3,-7.396726869E-3,1.199660502E-2
1.945733208E0,7.801237982E-3,2.564286580E-3,-7.743896917E-3,1.128728573E-2
1.955757208E0,8.675554767E-3,2.412752714E-3,1.966254320E-3,9.216983358E-3
1.965780208E0,1.458362304E-2,2.370442497E-3,1.192317717E-2,1.898586875E-2
1.975804208E0,2.060716040E-2,5.171288736E-3,1.604148932E-2,2.662192079E-2
1.985828208E0,2.153652348E-2,8.641503518E-4,1.444928907E-2,2.594899909E-2
1.995852208E0,1.622564718E-2,-4.179077689E-3,9.279828519E-3,1.915336874E-2
2.005876208E0,1.492677256E-3,-9.698024020E-3,3.487982787E-3,1.041373032E-2
2.015900208E0,-1.338027790E-2,-1.651145518E-2,3.470503725E-4,2.125512721E-2
2.025924208E0,-1.957870089E-2,-2.219318971E-2,-2.619868610E-3,2.971072045E-2
2.035948208E0,-1.066563278E-2,-1.872761734E-2,-1.990563702E-3,2.164351445E-2
2.045972208E0,-1.325323246E-4,-2.767267404E-3,8.036239073E-3,8.500380705E-3
2.055995208E0,8.005289361E-3,1.423568465E-2,2.065802552E-2,2.633426273E-2
2.066019208E0,1.045238972E-2,1.122443937E-2,2.826278470E-2,3.215626672E-2
2.076043208E0,7.518916856E-3,-4.677561112E-3,2.657700516E-2,2.801340558E-2
2.086070208E0,1.182198292E-3,-1.662012935E-2,2.213959396E-2,2.770898614E-2
2.096094208E0,-3.717219224E-3,-2.526341937E-2,1.303451043E-2,2.866978443E-2
2.106118208E0,-8.204944432E-3,-2.622644417E-2,6.723350845E-3,2.829047425E-2
2.116142208E0,-5.065610167E-3,-2.164127864E-2,8.528441191E-3,2.380629448E-2
2.126166208E0,-3.131284611E-3,-1.446309686E-2,1.355297491E-2,2.006662012E-2
2.136190208E0,4.574838094E-3,-1.591052487E-2,1.543955877E-2,2.263744510E-2
2.146213208E0,1.320377272E-2,-2.678296715E-2,1.079719234E-2,3.175289445E-2
2.156237208E0,1.781450212E-2,-2.144732326E-2,1.337486599E-2,3.092298823E-2
2.166261208E0,1.628284715E-2,-6.508750841E-3,2.068289556E-2,2.711599376E-2
2.176285208E0,1.036370546E-2,-1.097593736E-2,2.196893655E-2,2.665542655E-2
2.186309208E0,4.869377241E-3,-2.479760535E-2,1.214288548E-2,2.803714917E-2
2.196333208E0,1.944427611E-3,-3.031301126E-2,4.829046316E-3,3.075677387E-2
2.206357208E0,-3.914747387E-3,-2.680378221E-2,7.014064584E-3,2.798151336E-2
2.216381208E0,-5.035139155E-3,-2.464422397E-2,1.209883764E-2,2.791186618E-2
2.226405208E0,-8.475943469E-3,-2.448310331E-2,1.551380940E-2,3.019838153E-2
2.236428208E0,-1.290025283E-2,-2.711457387E-2,1.598465629E-2,3.401655296E-2
2.246452208E0,-2.041224577E-2,-2.689401992E-2,1.434132550E-2,3.668271666E-2
2.256476208E0,-2.513003536E-2,-3.352422267E-2,7.095131092E-3,4.249391801E-2
2.266500208E0,-1.777494326E-2,-6.298589706E-2,-1.359381713E-4,6.544608710E-2
2.276524208E0,-1.370989345E-2,-4.464177042E-2,3.963465337E-3,4.686745035E-2
2.286548208E0,-6.651437841E-3,-2.922557481E-2,4.896797705E-3,3.037028936E-2
2.296572208E0,-1.320322044E-3,-2.594402805E-2,-1.782410545E-3,2.603867948E-2
2.306596208E0,1.242599916E-3,-1.887538843E-2,4.691252019E-3,1.948928394E-2
2.316620208E0,9.385215119E-3,-1.629159041E-2,8.364018053E-3,2.057802174E-2
2.326643208E0,2.109142579E-2,-1.690484770E-2,9.359613992E-3,2.860462361E-2
2.336667208E0,2.684305422E-2,-1.690484770E-2,1.438573934E-3,3.175520320E-2
2.346691208E0,2.760398574E-2,-1.412445493E-2,-4.476304632E-3,3.132918063E-2
2.356715208E0,1.740461029E-2,-1.002398599E-2,-2.021669177E-3,2.018632955E-2
2.366739208E0,1.220060862E-3,-1.445393078E-2,1.711177174E-3,1.460591630E-2
2.376763208E0,-1.042487659E-2,-2.113500424E-2,-1.149057876E-3,2.359421094E-2
2.386787208E0,-1.732202992E-2,-2.784491517E-2,-4.429541994E-3,3.309097858E-2
2.396811208E0,-1.495527849E-2,-1.828789525E-2,2.022231929E-3,2.371069145E-2
2.406835208E0,-6.450030021E-3,1.957274741E-3,5.940439180E-3,8.984577304E-3
2.416858208E0,7.770185359E-3,6.492638029E-3,3.893001005E-3,1.084829876E-2
2.426882208E0,1.690446958E-2,-1.805471024E-3,3.734220751E-3,1.740589618E-2
2.436906208E0,1.918466762E-2,-8.555253036E-3,-2.880538581E-3,2.120238969E-2
2.446930208E0,1.869676262E-2,-9.187976830E-3,-7.011528127E-3,2.198065917E-2
2.456954208E0,1.735346578E-2,-3.318635980E-3,-9.417161345E-3,2.002096519E-2
2.466978208E0,1.367987320E-2,-3.126536263E-3,-9.290715680E-3,1.682948477E-2
2.477002208E0,1.295709237E-2,-5.680241622E-3,-6.447524764E-3,1.554741018E-2
2.487026208E0,1.069495827E-2,-1.576055586E-2,-2.434035297E-3,1.920160882E-2
2.497050208E0,5.564644001E-3,-1.358741708E-2,-3.873961978E-4,1.468786035E-2
2.507073208E0,-3.942509647E-3,-2.401555190E-3,-1.340540126E-3,4.807067451E-3
2.517097208E0,-1.122918539E-2,-2.459878335E-3,1.892004628E-3,1.165011963E-2
2.527121208E0,-1.468527596E-2,-6.327304523E-3,4.541909322E-3,1.662290748E-2
2.537145208E0,-1.426636055E-2,-2.283028327E-3,1.352507155E-3,1.451104880E-2
2.547169208E0,-1.224408206E-2,4.825224169E-3,-1.470501302E-3,1.324245852E-2
2.557193208E0,-5.906291772E-3,4.349850118E-3,-5.125423428E-3,8.948488356E-3
2.567217208E0,1.432041870E-3,1.262335805E-3,-8.128084242E-3,8.349250808E-3
2.577241208E0,8.565584198E-3,-7.131970488E-4,-1.141469181E-2,1.428891429E-2
2.587264208E0,9.092533961E-3,5.169701762E-5,-6.892966107E-3,1.141007573E-2
2.597288208E0,3.943844233E-3,7.848653477E-4,-5.029770546E-4,4.052518583E-3
2.607312208E0,3.284549806E-3,-3.503433894E-3,-4.626666661E-3,6.668460158E-3
2.617336208E0,5.324797239E-3,-8.414036594E-3,-1.150348037E-2,1.521445162E-2
2.627360208E0,5.336476024E-3,-1.095855795E-2,-1.318627968E-2,1.795677979E-2
2.637384208E0,3.175054677E-3,-2.392234048E-3,-3.058811650E-3,5.015982920E-3
2.647408208E0,4.402597435E-3,7.166615222E-3,7.339290809E-3,1.116281450E-2
2.657432208E0,8.469244465E-3,1.697796769E-2,8.545702323E-3,2.080885670E-2
2.667456208E0,1.585390419E-2,2.000351623E-2,2.223783638E-3,2.562093193E-2
2.677480208E0,2.446923032E-2,1.983653568E-2,-8.297033608E-3,3.257410240E-2
2.687503208E0,2.904390357E-2,1.787918992E-2,-9.490879253E-3,3.540184397E-2
2.697527208E0,2.991422452E-2,1.814763620E-2,-1.109911595E-3,3.500613421E-2
2.707551208E0,2.605105564E-2,1.067822520E-2,8.156451397E-3,2.931227887E-2
2.717575208E0,2.153300308E-2,1.964362338E-3,1.481488720E-2,2.621087224E-2
2.727599208E0,6.494665518E-3,4.585978109E-3,1.300180703E-2,1.524004139E-2
2.737623208E0,-1.536096795E-3,5.311955698E-3,3.982479684E-3,6.814441366E-3
2.747647208E0,-2.936314791E-3,-3.452077508E-3,-6.127995905E-3,7.621752914E-3
2.757671208E0,4.134090850E-4,-6.267838180E-3,-1.056056097E-2,1.228747942E-2
2.767694208E0,3.666349221E-3,-7.531808224E-3,-9.472024627E-3,1.264474208E-2
2.777718208E0,6.002740469E-3,-8.883895352E-3,-9.197985753E-3,1.412655059E-2
2.787742208E0,7.966373116E-3,-8.045678027E-3,-5.607935134E-3,1.263506913E-2
2.797766208E0,6.877406966E-3,-4.442688078E-3,-8.852730505E-3,1.205848421E-2
2.807790208E0,7.511499804E-3,8.451693691E-3,-7.124285679E-3,1.336447537E-2
2.817814208E0,8.144533262E-3,1.017156336E-2,-4.120772704E-3,1.366656105E-2
2.827838208E0,1.014819089E-2,1.797596691E-3,-4.807137884E-4,1.031737457E-2
2.837862208E0,8.347894065E-3,-5.399330053E-3,3.533880226E-4,9.948114567E-3
2.847886208E0,9.297051467E-3,-9.132702835E-3,-1.627524151E-3,1.313355481E-2
2.857909208E0,1.460606325E-2,-8.840288036E-3,-1.089159586E-2,2.025128728E-2
2.867933208E0,2.116606571E-2,-2.447471488E-4,-1.585151814E-2,2.644490246E-2
2.877957208E0,2.564949729E-2,-5.557220429E-3,-1.902414113E-2,3.241446214E-2
2.887981208E0,2.686492354E-2,-7.718513254E-3,-1.878653467E-2,3.367838251E-2
2.898005208E0,2.512215078E-2,-4.441227298E-3,-1.653962582E-2,3.040404878E-2
2.908029208E0,2.449614182E-2,4.207465332E-3,-1.055470109E-2,2.700306360E-2
2.918053208E0,2.344206162E-2,6.857310422E-3,2.176273614E-3,2.452119748E-2
2.928077208E0,1.172619872E-2,5.472080782E-3,8.379997686E-3,1.541660681E-2
2.938101208E0,-2.649505041E-4,6.186872721E-3,1.406797580E-2,1.537060624E-2
2.948124208E0,-8.423419669E-3,5.619344302E-3,7.188024465E-3,1.241767792E-2
2.958148208E0,-1.372390892E-2,6.470756605E-3,-6.056763232E-5,1.517300351E-2
2.968172208E0,-1.046903338E-2,3.967514262E-3,-8.754138835E-3,1.421185337E-2
2.978196208E0,-3.869453445E-3,-6.133888382E-4,-1.260666735E-2,1.320140059E-2
2.988220208E0,4.539593123E-3,-8.493054658E-3,-1.398389786E-2,1.697908368E-2
2.998244208E0,1.254052855E-2,-1.504043676E-2,-1.510508917E-2,2.473142360E-2
3.008268208E0,1.672553085E-2,-1.486303657E-2,-1.465911325E-2,2.674963251E-2
3.018292208E0,1.535666548E-2,-4.734767601E-3,-8.146885782E-3,1.801712926E-2
3.028316208E0,1.866704784E-2,2.104392741E-3,2.095048316E-3,1.890175578E-2
3.038339208E0,1.598631032E-2,3.765938804E-3,1.330748759E-2,2.113843984E-2
3.048363208E0,1.464396529E-2,2.605565591E-3,1.309906691E-2,1.981969337E-2
3.058387208E0,1.775826514E-2,-2.959109610E-3,3.066672944E-3,1.826244215E-2
3.068411208E0,1.797326095E-2,-9.603422135E-3,-7.582081482E-3,2.174285597E-2
3.078435208E0,1.448318828E-2,-1.831968129E-2,-1.015096717E-2,2.546400596E-2
3.088455083E0,9.600482881E-3,-2.123136632E-2,-8.975981735E-3,2.497015089E-2
3.098479083E0,7.252107840E-3,-8.452720940E-3,-4.995620809E-3,1.220646495E-2
3.108503083E0,9.817018174E-3,5.028801505E-3,-4.167417064E-4,1.103795108E-2
3.118527083E0,1.208976004E-2,1.084967237E-2,5.244198255E-4,1.625277529E-2
3.128550083E0,9.957535192E-3,1.119394228E-2,1.147063915E-3,1.502573148E-2
3.138574083E0,-8.016361389E-4,1.921880525E-3,2.542293631E-3,3.286259599E-3
3.148598083E0,-1.504944265E-2,-1.084539108E-2,3.222681582E-3,1.882800861E-2
3.158622083E0,-3.009310737E-2,-1.558501832E-2,5.271451548E-3,3.429688191E-2
3.168646083E0,-3.693330288E-2,-2.087788843E-2,7.703179959E-3,4.311953233E-2
3.178670083E0,-2.945567667E-2,-2.879573405E-2,4.391006660E-3,4.142598372E-2
3.188694083E0,-1.623727195E-2,-1.811149903E-2,4.468136467E-4,2.432848207E-2
3.198718083E0,1.757896971E-4,-7.239143830E-3,2.995408140E-4,7.247470601E-3
3.208741083E0,1.217648014E-2,-3.434042446E-4,1.903934404E-3,1.232921577E-2
3.218765083E0,1.511341520E-2,4.376516212E-3,1.845877152E-3,1.584223707E-2
3.228789083E0,1.162002981E-2,9.794622660E-3,-1.314384863E-3,1.525409235E-2
3.238813083E0,3.292858368E-3,7.474742830E-3,1.905998215E-5,8.167928739E-3
3.248837083E0,-5.320481490E-3,4.013372585E-3,-3.245607018E-3,7.412735508E-3
3.258861083E0,-1.165773906E-2,-1.305226004E-3,1.696420833E-3,1.185260893E-2
3.268885083E0,-2.123256959E-2,-3.866096260E-3,7.733807899E-3,2.292554244E-2
3.278909083E0,-2.363980003E-2,3.511126153E-3,1.535710692E-2,2.840790181E-2
3.288933083E0,-2.028650232E-2,1.090169884E-2,1.741163246E-2,2.887133802E-2
3.298956083E0,-1.263923664E-2,1.547647640E-2,1.776450127E-2,2.673666266E-2
3.308980083E0,-2.111573238E-3,1.271583512E-2,1.601224393E-2,2.055585464E-2
3.319004083E0,3.213417251E-3,8.300048299E-3,1.358903479E-2,1.624434421E-2
3.329028083E0,4.145159386E-3,8.794253692E-3,6.735920440E-3,1.182767384E-2
3.339052083E0,3.897219663E-3,5.116694607E-3,-1.848779619E-3,6.692299372E-3
3.349076083E0,-2.993943868E-3,-1.538252691E-3,-7.156040519E-4,3.441222223E-3
3.359100083E0,-1.355976984E-2,-7.273635827E-3,7.542059757E-3,1.713638823E-2
3.369124083E0,-1.756524481E-2,-1.288658381E-2,8.617289364E-3,2.342775156E-2
3.379148083E0,-1.726537384E-2,-1.165220886E-2,1.083117537E-2,2.347725421E-2
3.389171083E0,-1.667717472E-2,-2.150281798E-3,1.476194523E-2,2.237558704E-2
3.399195083E0,-1.021048613E-2,2.546735574E-3,2.184835076E-2,2.425057360E-2
3.409219083E0,-6.968672387E-3,3.405510681E-3,2.575083822E-2,2.689359714E-2
3.419243083E0,-5.769983865E-3,1.010176260E-2,2.010839805E-2,2.323114275E-2
3.429267083E0,-7.834199816E-3,1.067460887E-2,9.864816442E-3,1.651170993E-2
3.439291083E0,-1.307530142E-2,-5.839045625E-4,1.534981653E-3,1.317803553E-2
3.449315083E0,-2.148412541E-2,-1.544814929E-2,-3.505100962E-3,2.669267116E-2
3.459339083E0,-2.880036272E-2,-2.152628079E-2,3.285427112E-3,3.610589549E-2
3.469363083E0,-2.759723924E-2,-1.354954764E-2,1.363121904E-2,3.363046220E-2
3.479386083E0,-2.372606844E-2,7.899285294E-3,2.661386132E-2,3.651879853E-2
3.489410083E0,-1.384180412E-2,2.270492353E-2,2.650275454E-2,3.754337614E-2
3.499434083E0,-1.201642910E-3,1.326881163E-2,2.242438868E-2,2.608368293E-2
3.509458083E0,6.754310336E-3,-2.773624379E-3,1.989443973E-2,2.119203700E-2
3.519482083E0,9.051553905E-3,-8.012328297E-3,1.371670514E-2,1.828321724E-2
3.529506083E0,3.240263090E-3,-1.241251547E-2,6.817573681E-3,1.452753097E-2
3.539530083E0,-2.726016566E-3,-1.361999288E-2,2.518964931E-3,1.411667655E-2
3.549554083E0,-6.816372275E-3,-1.489069872E-2,4.342484288E-3,1.694263879E-2
3.559578083E0,-1.935597043E-3,-1.556660980E-2,5.793907680E-3,1.672229777E-2
3.569601083E0,2.363200067E-3,-5.061245989E-3,1.260984037E-2,1.379162788E-2
3.579625083E0,5.541683175E-3,6.742150057E-3,1.546501461E-2,1.775763264E-2
3.589649083E0,2.285059076E-3,1.614978537E-2,2.142363042E-2,2.692599121E-2
3.599673083E0,-4.584564827E-3,2.395391092E-2,2.259009331E-2,3.324335120E-2
3.609697083E0,-1.376178488E-2,2.219944634E-2,2.390010282E-2,3.540363054E-2
3.619721083E0,-2.441070229E-2,1.322459430E-2,2.160871960E-2,3.518108929E-2
3.629745083E0,-3.301469982E-2,-8.368574083E-3,1.438031159E-2,3.697021501E-2
3.639769083E0,-3.745898604E-2,-1.831068657E-2,5.142337643E-3,4.201071904E-2
3.649792083E0,-3.283576295E-2,-1.657794975E-2,-2.634412143E-3,3.687757955E-2
3.659816083E0,-1.852579787E-2,-8.076606318E-3,-4.467199557E-3,2.069764789E-2
3.669840083E0,-1.826075953E-3,6.102824118E-4,2.268949524E-3,2.975757038E-3
3.679864083E0,1.452786289E-2,9.641327895E-3,5.512413569E-3,1.828662646E-2
3.689888083E0,2.954908460E-2,1.082573924E-2,4.500996321E-3,3.178999841E-2
3.699912083E0,3.808451444E-2,1.352405362E-2,5.425378680E-3,4.077701559E-2
3.709936083E0,3.756121174E-2,4.292317200E-3,5.219729617E-3,3.816430520E-2
3.719960083E0,2.916586399E-2,-4.988266621E-3,-1.158806961E-3,2.961204586E-2
3.729984083E0,1.883040182E-2,-7.892975584E-3,-6.386325695E-3,2.139318238E-2
3.740007083E0,6.581724621E-3,-8.206430823E-3,-1.057228260E-2,1.491434763E-2
3.750031083E0,-3.939261660E-3,-1.136912312E-2,-7.756785490E-3,1.431581168E-2
3.760055083E0,-9.968391620E-3,-3.463795409E-3,-1.343360636E-3,1.063820135E-2
3.770079083E0,-7.692240179E-3,7.311259396E-3,-1.530367881E-4,1.061359945E-2
3.780103083E0,-2.034088364E-3,1.927764155E-2,-9.344080463E-4,1.940716614E-2
3.790127083E0,2.574511804E-3,2.727777697E-2,-3.722471418E-3,2.765071466E-2
3.800151083E0,5.349792074E-3,2.742664702E-2,-6.857544649E-3,2.877268081E-2
3.810175083E0,2.978260163E-3,1.502692699E-2,-7.826241665E-3,1.720257618E-2
3.820198083E0,-2.181614516E-3,6.268588826E-3,-8.349020034E-3,1.066587002E-2
3.830222083E0,-8.855022490E-3,3.326655133E-3,-1.071476191E-2,1.429280170E-2
3.840246083E0,-7.797214668E-3,-5.251919385E-3,-1.232384332E-2,1.550020412E-2
3.850270083E0,5.200947169E-3,-9.723735973E-3,-1.720813289E-2,2.043821740E-2
3.860294083E0,1.771247759E-2,6.751087494E-4,-1.596843079E-2,2.385746039E-2
3.870318083E0,3.115338646E-2,1.394319162E-2,-1.297477260E-2,3.651425481E-2
3.880342083E0,4.082252830E-2,1.969801635E-2,-9.999223053E-3,4.641632392E-2
3.890366083E0,4.392910376E-2,1.577917486E-2,-8.813584223E-3,4.750187137E-2
3.900390083E0,3.922463208E-2,8.543100208E-3,-1.237929054E-2,4.200956031E-2
3.910414083E0,2.490779385E-2,4.075209610E-3,-9.844917804E-3,2.709110434E-2
3.920437083E0,5.920786876E-3,6.686438806E-3,-8.475254290E-3,1.231235625E-2
3.930461083E0,-5.200612824E-3,8.930547163E-3,-8.888259530E-3,1.363092821E-2
3.940485083E0,-9.821729735E-3,2.728311345E-3,-8.571608923E-3,1.331850357E-2
3.950509083E0,-4.357975908E-3,-4.522986244E-3,-1.163967699E-2,1.322616494E-2
3.960533083E0,2.502593445E-3,3.308837768E-3,-1.185272913E-2,1.255780909E-2
3.970557083E0,1.090697758E-2,1.518433727E-2,-9.834693745E-3,2.112457004E-2
3.980581083E0,1.532116719E-2,2.194184065E-2,-9.639217518E-3,2.844463129E-2
3.990605083E0,1.945975237E-2,1.879667491E-2,-1.204005629E-2,2.961350883E-2
4.000628083E0,1.970982179E-2,1.398753747E-2,-8.339327760E-3,2.556702304E-2
4.010652083E0,1.480496861E-2,7.630804088E-3,-7.986088283E-3,1.847143396E-2
4.020676083E0,1.058199443E-2,5.127166398E-3,-7.731756661E-3,1.407289957E-2
4.030700083E0,7.923465222E-3,-2.328962786E-3,-2.945573768E-3,8.768225226E-3
4.040724083E0,5.036331248E-3,-2.942821244E-3,2.424963750E-4,5.838119029E-3
4.050748083E0,1.168635674E-3,-3.807059722E-3,-3.874474205E-4,4.001190894E-3
4.060772083E0,-6.183454534E-4,-3.334615147E-3,-4.806963261E-3,5.882933373E-3
4.070796083E0,-5.398219451E-3,-8.024468087E-3,-3.450350370E-3,1.026828997E-2
4.080820083E0,-9.624123573E-3,-9.381081909E-3,-3.392559942E-3,1.386138216E-2
4.090843958E0,-1.535949484E-2,-1.597990468E-2,-7.356780581E-3,2.335366472E-2
4.100867958E0,-1.931189187E-2,-6.263361778E-3,-5.338637158E-3,2.099237755E-2
4.110891958E0,-1.690547355E-2,7.406420074E-3,-4.148897715E-3,1.891727904E-2
4.120915958E0,-5.706347059E-3,6.988037378E-3,-1.129671931E-3,9.092371628E-3
4.130939958E0,2.519052941E-3,8.916581282E-4,-2.704612445E-3,3.802053447E-3
4.140963958E0,2.067114459E-3,-3.583517857E-3,-1.593275461E-3,4.433180474E-3
4.150987958E0,1.991260098E-3,-6.768675521E-3,-2.916971920E-3,7.634710883E-3
4.161011958E0,2.760647330E-3,-1.765008643E-2,-5.796914455E-3,1.878166505E-2
4.171035958E0,1.117470441E-3,-2.306413837E-2,-2.322768094E-3,2.320772437E-2
4.181058958E0,1.499634003E-3,-1.249351818E-2,1.877569593E-3,1.272250629E-2
4.191082958E0,4.933481105E-3,-9.067030624E-5,7.755528204E-4,4.994891299E-3
4.201106958E0,6.689037196E-3,1.531194779E-3,-1.759510254E-3,7.084042095E-3
4.211130958E0,6.324308459E-3,-1.556018181E-2,-5.360845942E-3,1.763107497E-2
4.221154958E0,3.617568873E-4,-3.410563990E-2,-8.967032656E-3,3.526660199E-2
4.231178958E0,-5.798570346E-3,-4.163037241E-2,-5.472916644E-3,4.238707517E-2
4.241202958E0,-1.311880164E-2,-3.197721392E-2,1.992190257E-3,3.462100502E-2
4.251226958E0,-1.670118235E-2,-1.526968367E-2,4.566351417E-3,2.308558634E-2
4.261250958E0,-1.011811383E-2,-5.112434737E-4,5.267561879E-3,1.141861662E-2
4.271273958E0,5.810125731E-4,4.723474383E-3,1.562782098E-3,5.009099095E-3
4.281297958E0,9.664256126E-3,2.632892691E-3,3.597703762E-3,1.064299971E-2
4.291321958E0,1.488075312E-2,-6.163931452E-3,5.553532857E-3,1.703738805E-2
4.301345958E0,1.055497956E-2,-1.985044964E-2,-3.228240646E-3,2.271276033E-2
4.311369958E0,8.759949356E-3,-2.586434036E-2,-1.000923663E-2,2.908411307E-2
4.321393958E0,4.345227964E-3,-2.862417325E-2,-1.403274015E-2,3.217362424E-2
4.331417958E0,4.664996173E-3,-3.048120439E-2,-1.465448271E-2,3.414117564E-2
4.341441958E0,4.403739702E-3,-2.727049775E-2,-1.035987027E-2,2.950254028E-2
4.351464958E0,5.471167155E-3,-1.328621246E-2,-4.697988741E-3,1.511714952E-2
4.361488958E0,7.093565073E-3,-1.188004389E-3,6.667291746E-5,7.192667457E-3
4.371512958E0,7.705851924E-3,-6.187642924E-3,-1.191350631E-3,9.954214944E-3
4.381536958E0,3.794466611E-3,-1.539232582E-2,-3.236658406E-3,1.618016158E-2
4.391560958E0,-7.182245143E-3,-2.407968603E-2,-9.417908266E-3,2.683491980E-2
4.401584958E0,-1.765059866E-2,-2.442429960E-2,-1.044322457E-2,3.189280457E-2
4.411608958E0,-2.374119684E-2,-1.595082507E-2,-7.276084740E-3,2.951295744E-2
4.421632958E0,-1.863138936E-2,-1.009107195E-2,-4.542882554E-3,2.167016808E-2
4.431656958E0,-6.072811317E-3,-8.409517817E-3,-2.499229042E-3,1.066982535E-2
4.441679958E0,8.725309744E-3,-1.110010967E-2,-1.277370844E-3,1.417657014E-2
4.451703958E0,1.903815940E-2,-5.814618897E-3,-4.163917154E-3,2.033714612E-2
4.461727958E0,2.623908222E-2,-6.421020720E-3,-6.181261502E-3,2.771149466E-2
4.471751958E0,2.854085155E-2,-1.242485084E-2,-6.813229527E-3,3.186498426E-2
4.481775958E0,2.239640616E-2,-1.392501034E-2,-7.263570093E-3,2.735442144E-2
4.491799958E0,1.136801019E-2,-1.469432935E-2,-7.110597566E-3,1.989260085E-2
4.501823958E0,3.981999122E-3,-1.189268380E-2,-1.004513446E-2,1.606850869E-2
4.511847958E0,4.076560959E-3,-1.337439753E-2,-1.265865378E-2,1.886092188E-2
4.521871958E0,4.808397498E-3,-2.590137534E-2,-1.739908010E-2,3.157102975E-2
4.531894958E0,7.898210548E-3,-1.515742578E-2,-6.919648033E-3,1.843938217E-2
4.541918958E0,1.592444442E-2,4.112940282E-3,-1.122745685E-3,1.648528938E-2
4.551942958E0,1.706694812E-2,9.447364137E-3,-5.171601661E-3,2.018115138E-2
4.561966958E0,2.015408501E-2,1.054538507E-2,-8.814806119E-3,2.439453004E-2
4.571990958E0,1.522455178E-2,9.765010327E-3,-7.403971162E-3,1.954382748E-2
4.582014958E0,7.700323593E-3,1.899363939E-3,-6.650030147E-3,1.035014337E-2
4.592038958E0,-3.734191414E-4,-5.869798362E-3,-8.112853393E-3,1.002059703E-2
4.602062958E0,-1.383289811E-3,-5.392293446E-3,-1.035816502E-2,1.175933254E-2
4.612086958E0,7.068993058E-3,-6.351504941E-3,-1.221311092E-2,1.547489439E-2
4.622109958E0,1.815892756E-2,-1.061096415E-2,-1.289434824E-2,2.466988907E-2
4.632133958E0,2.864844352E-2,-7.615981158E-3,-1.219388004E-2,3.205350520E-2
4.642157958E0,3.356517479E-2,5.104341079E-3,-1.185326185E-2,3.596074350E-2
4.652181958E0,3.249602765E-2,1.247425191E-2,-1.293093339E-2,3.713230146E-2
4.662205958E0,2.678621374E-2,1.009604894E-2,-8.628063835E-3,2.989774132E-2
4.672229958E0,1.743328199E-2,8.357452229E-3,-4.509916529E-3,1.985209500E-2
4.682253958E0,5.121487193E-3,6.607222836E-3,-3.728278447E-3,9.153419299E-3
4.692277958E0,-7.297307602E-4,-6.938762963E-4,-2.325698268E-3,2.534332995E-3
4.702300958E0,1.864188118E-3,3.916854504E-3,-3.821063088E-3,5.780784521E-3
4.712324958E0,6.712226197E-3,2.117979899E-2,-6.977600977E-3,2.328786768E-2
4.722348958E0,1.591557823E-2,2.644912899E-2,-8.538212627E-3,3.202753705E-2
4.732372958E0,2.258335985E-2,2.120474726E-2,-5.133307539E-3,3.140064163E-2
4.742396958E0,1.903922483E-2,1.605232991E-2,-6.329866126E-3,2.569506924E-2
4.752420958E0,1.463481318E-2,1.428398211E-2,-8.275733329E-3,2.206122535E-2
4.762444958E0,1.391842216E-2,1.137021743E-2,-6.821114570E-3,1.922321315E-2
4.772468958E0,1.469330583E-2,1.694685034E-2,-3.404061310E-3,2.268648510E-2
4.782492958E0,1.808830351E-2,1.753114909E-2,-9.566163644E-4,2.520799530E-2
4.792515958E0,2.255146205E-2,1.206818037E-2,-1.519875368E-3,2.562263529E-2
4.802539958E0,2.155916765E-2,-3.036203794E-3,-1.945714932E-3,2.185868363E-2
4.812563958E0,1.348220930E-2,-9.258404374E-3,-3.098387970E-3,1.664596128E-2
4.822587958E0,7.164924406E-3,-5.635706708E-3,-5.447828677E-3,1.061961248E-2
4.832611958E0,1.780163031E-3,6.312204525E-3,-1.253505703E-3,6.677138828E-3
4.842635958E0,-1.431342913E-3,1.490809023E-2,4.250982311E-3,1.556826090E-2
4.852659958E0,3.263205290E-3,1.261308044E-2,3.935981076E-3,1.360993218E-2
4.862683958E0,1.061486080E-2,-2.143495018E-3,-2.594622783E-3,1.113561440E-2
4.872707958E0,1.371791773E-2,-1.884841826E-3,-2.406924497E-3,1.405443634E-2
4.882730958E0,1.072399318E-2,1.841453137E-3,1.057048794E-3,1.093216957E-2
4.892754958E0,9.463511407E-3,-3.607752733E-3,1.057102345E-3,1.018289710E-2
4.902778958E0,2.550744452E-3,-5.498596933E-3,4.724009428E-3,7.684863731E-3
4.912802958E0,-1.258010510E-3,-5.625286140E-3,7.988248020E-3,9.850814232E-3
4.922826958E0,2.368948422E-3,-1.837471966E-3,4.427601118E-3,5.347136758E-3
4.932850958E0,6.045350805E-3,7.448738907E-3,1.051988918E-3,9.650733565E-3
4.942874958E0,1.024755277E-2,1.383286901E-2,-1.371125691E-4,1.721567317E-2
4.952898958E0,1.299131196E-2,1.259127632E-2,-1.522803679E-3,1.815580780E-2
4.962921958E0,1.657539420E-2,6.113131531E-4,-1.364877913E-3,1.664272479E-2
4.972945958E0,1.140045561E-2,-1.011447422E-2,5.775745027E-3,1.629822713E-2
4.982969958E0,4.710327834E-3,-5.680576898E-3,6.849797443E-3,1.006855835E-2
4.992993958E0,-2.739207819E-3,6.817895919E-3,6.434401963E-3,9.766703275E-3
5.003017958E0,-3.085951554E-3,6.214423571E-3,5.785122979E-3,9.033814543E-3
5.013041958E0,-7.293730741E-4,2.149812877E-3,7.443897892E-3,7.782370867E-3
5.023065958E0,-7.927562692E-4,4.456643015E-3,1.040346920E-2,1.134558509E-2
5.033089958E0,1.692492515E-3,9.021077305E-3,1.205047406E-2,1.514788077E-2
5.043113958E0,6.228921004E-3,1.058328804E-2,1.268217526E-2,1.765341361E-2
5.053136958E0,9.846033528E-3,9.619867429E-3,9.371813387E-3,1.665284095E-2
5.063160958E0,1.352572255E-2,7.981491275E-3,3.503803629E-3,1.609117812E-2
5.073184958E0,1.873828843E-2,9.840773419E-3,3.834306262E-4,2.116863940E-2
5.083208958E0,2.276685275E-2,1.019976661E-2,-2.933802782E-3,2.511915647E-2
5.093232333E0,2.407136746E-2,1.614611712E-3,-7.843604311E-3,2.536848105E-2
5.103256333E0,1.643901318E-2,-8.548276499E-3,-1.243888773E-2,2.231681235E-2
5.113280333E0,5.632600281E-3,-7.730876096E-3,-1.300609112E-2,1.614469068E-2
5.123304333E0,-4.306186456E-4,9.369147010E-4,-9.580733255E-3,9.636062021E-3
5.133328333E0,-5.808131769E-3,8.183391765E-5,-5.414867774E-4,5.833892300E-3
5.143351333E0,-7.521609776E-3,2.447253559E-3,1.611678861E-3,8.072247045E-3
5.153375333E0,-7.598970551E-3,3.534570569E-3,-7.018586621E-4,8.410121766E-3
5.163399333E0,-3.175726626E-3,4.150026944E-3,-1.346054487E-4,5.227435496E-3
5.173423333E0,1.120625529E-5,5.533642601E-3,-1.411539968E-3,5.710846794E-3
5.183447333E0,7.160994690E-3,1.276758686E-2,-5.801228341E-3,1.574628113E-2
5.193471333E0,1.349804550E-2,1.729250327E-2,-6.031270139E-3,2.275091473E-2
5.203495333E0,1.375903562E-2,1.258989424E-2,-6.688005757E-3,1.981277161E-2
5.213519333E0,1.161834784E-2,2.236984205E-3,-6.139609031E-3,1.332985011E-2
5.223543333E0,8.818831295E-3,9.480142035E-4,-4.920413718E-3,1.014302654E-2
5.233566333E0,8.976692334E-3,3.272369504E-3,-8.085582405E-3,1.251663095E-2
5.243590333E0,1.446919516E-2,6.498256698E-3,-1.581434160E-2,2.239817736E-2
5.253614333E0,1.689883694E-2,5.632600281E-3,-1.680295914E-2,2.448747255E-2
5.263638333E0,1.429533027E-2,-2.915081335E-3,-1.519547589E-2,2.106553238E-2
5.273662333E0,1.877554692E-2,-1.907680929E-2,-1.682943292E-2,3.161764740E-2
5.283686333E0,1.679841615E-2,-7.478743792E-3,-1.412525866E-2,2.318709396E-2
5.293710333E0,1.010140963E-2,1.297671348E-2,-6.651202217E-3,1.773899828E-2
5.303734333E0,-3.091524122E-4,1.251838356E-2,-3.267389722E-3,1.294145810E-2
5.313757333E0,-9.519148618E-3,8.754229173E-3,-1.310871448E-3,1.299881159E-2
5.323781333E0,-1.589475758E-2,-1.324731857E-4,-1.276289113E-4,1.589582200E-2
5.333805333E0,-1.559280045E-2,-1.505315537E-3,-2.547006123E-3,1.587100000E-2
5.343829333E0,-1.187848859E-2,4.051369615E-3,-3.988042474E-3,1.316877252E-2
5.353853333E0,-8.899379522E-3,1.147234533E-2,-2.090537222E-3,1.466915162E-2
5.363877333E0,-5.195454694E-3,1.870442554E-2,1.701271627E-3,1.948698565E-2
5.373901333E0,2.443180420E-4,1.614512689E-2,2.857615706E-3,1.639788954E-2
5.383925333E0,7.801037282E-3,8.688542992E-3,-2.234081505E-3,1.188856939E-2
5.393949333E0,8.488301188E-3,5.290539004E-3,-8.661357686E-3,1.323103084E-2
5.403972333E0,6.252577528E-3,-3.827325767E-3,-8.615285158E-3,1.131221847E-2
5.413996333E0,-2.272174926E-3,-9.890364483E-3,-8.969165385E-3,1.354355995E-2
5.424020333E0,-1.086406596E-2,-1.664387435E-2,-7.830130868E-3,2.136252401E-2
5.434044333E0,-1.544376649E-2,-1.125081070E-2,-7.063143887E-3,2.037102517E-2
5.444068333E0,-1.245596632E-2,-7.107197773E-3,-5.004253704E-3,1.518900630E-2
5.454092333E0,-1.300952770E-2,-2.197892172E-3,3.149176016E-3,1.356450701E-2
5.464116333E0,-1.742291823E-2,3.691287711E-4,8.504260331E-3,1.939115209E-2
5.474140333E0,-2.015378326E-2,-1.265991712E-3,8.102601394E-3,2.175844351E-2
5.484164333E0,-1.718222722E-2,-5.651685409E-3,4.038883839E-3,1.853329606E-2
5.494187333E0,-8.048838004E-3,-1.504997350E-2,-5.314718001E-4,1.707536114E-2
5.504211333E0,-4.823749885E-3,-2.218804322E-2,-6.216788199E-3,2.354201097E-2
5.514235333E0,4.138021264E-3,-1.813873276E-2,-3.556291107E-3,1.894159583E-2
5.524259333E0,1.358478516E-2,-5.500701722E-3,1.456310507E-3,1.472837220E-2
5.534283333E0,1.806829683E-2,7.726162672E-3,5.877853371E-3,2.051112138E-2
5.544307333E0,2.643435076E-2,1.344183926E-2,4.833893850E-3,3.004703766E-2
5.554331333E0,2.916990221E-2,1.293345820E-2,5.987946410E-3,3.246556696E-2
5.564355333E0,3.003702872E-2,2.372693736E-3,2.311186399E-3,3.021910575E-2
5.574379333E0,2.166429721E-2,2.229211386E-4,2.056214958E-3,2.176280054E-2
5.584402333E0,1.019353047E-2,-1.991898753E-4,4.755861126E-3,1.125015356E-2
5.594426333E0,2.396652009E-3,-3.555365372E-3,5.695213098E-3,7.128815892E-3
5.604450333E0,1.492242445E-3,-7.389784791E-3,4.954854492E-3,9.021435019E-3
5.614474333E0,2.499358496E-3,-6.580148824E-3,3.436530009E-3,7.832936227E-3
5.624498333E0,9.104797617E-3,-1.137277577E-4,2.496967092E-3,9.441669254E-3
5.634522333E0,1.657313295E-2,1.093894802E-2,2.393105067E-3,2.000140673E-2
5.644546333E0,2.377671748E-2,2.481934428E-2,5.089555867E-3,3.474529787E-2
5.654570333E0,2.291305363E-2,2.336898632E-2,1.117594354E-2,3.458351143E-2
5.664594333E0,1.240901276E-2,1.696594805E-2,8.640614338E-3,2.272635490E-2
5.674617333E0,1.737812185E-3,1.170366257E-2,4.816690926E-3,1.277482760E-2
5.684641333E0,-2.805008087E-3,2.311492339E-3,8.691323921E-3,9.420731325E-3
5.694665333E0,-2.474581823E-3,4.315357655E-3,1.836104691E-2,1.902298374E-2
5.704689333E0,1.329211285E-3,7.638450712E-3,1.815305278E-2,1.973945432E-2
5.714713333E0,1.879167045E-3,1.028425805E-2,1.063058339E-2,1.490994754E-2
5.724737333E0,-2.103324048E-3,3.262034850E-3,-1.172547229E-3,4.054591276E-3
5.734761333E0,-9.968750179E-3,-1.235978492E-2,-5.890764762E-3,1.693639196E-2
5.744785333E0,-1.364071667E-2,-2.091225982E-2,-8.341671899E-3,2.632442311E-2
5.754809333E0,-1.587696560E-2,-1.101743989E-2,-1.176490448E-3,1.936094388E-2
5.764832333E0,-1.722106338E-2,6.959164049E-3,6.705401000E-3,1.974733882E-2
5.774856333E0,-1.291862875E-2,1.899566315E-2,1.078030653E-2,2.537599646E-2
5.784880333E0,-7.317201700E-3,2.455714345E-2,1.092970930E-2,2.785773287E-2
5.794904333E0,2.277556341E-3,2.248199843E-2,5.505488254E-3,2.325807209E-2
5.804928333E0,1.386843249E-2,1.699881814E-2,-4.077364225E-3,2.231407935E-2
5.814952333E0,1.853479072E-2,9.972574189E-3,-7.250255439E-3,2.226110750E-2
5.824976333E0,1.445855573E-2,3.891777713E-3,-7.775696926E-3,1.687178800E-2
5.835000333E0,1.043142192E-2,2.565068426E-3,-6.371675059E-3,1.248969104E-2
5.845023333E0,8.158680983E-3,3.023664700E-3,-4.340482410E-3,9.723497887E-3
5.855047333E0,1.310094818E-2,6.980675273E-3,-9.652464651E-4,1.487603345E-2
5.865071333E0,2.342762053E-2,1.044358313E-2,-1.985225827E-4,2.565075522E-2
5.875095333E0,3.182141483E-2,1.039711572E-2,-2.668656409E-3,3.358309372E-2
5.885119333E0,3.307469562E-2,3.313639900E-3,-5.612514447E-3,3.371077006E-2
5.895143333E0,2.584470063E-2,-4.171689972E-3,-8.290217258E-3,2.746050346E-2
5.905167333E0,1.315234043E-2,-7.569843438E-4,-8.846019395E-3,1.586849530E-2
5.915191333E0,-7.476255996E-4,4.830223974E-3,-6.648382638E-3,8.251727054E-3
5.925215333E0,-9.991457686E-3,4.690674134E-3,6.899577565E-4,1.105928082E-2
5.935238333E0,-1.665616781E-2,2.234853571E-3,7.216143422E-3,1.828921054E-2
5.945262333E0,-2.058752626E-2,8.609287906E-4,7.916288450E-3,2.207385464E-2
5.955286333E0,-1.201104932E-2,7.585702464E-3,-2.785236575E-4,1.420865099E-2
5.965310333E0,3.648337442E-3,1.520766970E-2,-6.655462552E-3,1.699643391E-2
5.975334333E0,1.704108901E-2,1.157185342E-2,-7.352785207E-3,2.187167018E-2
5.985358333E0,2.101346105E-2,5.229801871E-3,-4.766056314E-3,2.217276857E-2
5.995382333E0,2.182923071E-2,-1.884317724E-3,-4.768558778E-3,2.242331643E-2
6.005406333E0,2.317466028E-2,-4.906206392E-3,-1.335379109E-2,2.719300419E-2
6.015430333E0,2.061080933E-2,-5.592150614E-3,-2.159206755E-2,3.036931002E-2
6.025453333E0,1.349324547E-2,-2.765472047E-3,-2.016993985E-2,2.442420894E-2
6.035477333E0,4.666678142E-3,-1.700035296E-3,-1.263250224E-2,1.357380263E-2
6.045501333E0,-1.033285516E-3,1.902688760E-3,-4.105327651E-3,4.641294927E-3
6.055525333E0,-3.974706633E-4,4.013389349E-3,1.411520876E-3,4.272899271E-3
6.065549333E0,1.375129446E-3,2.712968038E-3,9.896759875E-4,3.198536405E-3
6.075573333E0,2.861327725E-3,6.844561547E-3,-3.750381060E-3,8.312675695E-3
6.085597333E0,4.939392209E-3,1.180736255E-2,-7.762433030E-3,1.496886009E-2
6.095624708E0,3.644810058E-3,4.590393510E-3,-4.827204626E-3,7.593303460E-3
6.105648708E0,-5.738039035E-3,-4.722680897E-3,-4.793116357E-3,8.843233076E-3
6.115671708E0,-1.006628945E-2,-3.367200959E-3,-9.086817503E-3,1.397277632E-2
6.125695708E0,-1.319790073E-2,1.088800142E-3,-9.193077683E-3,1.612087921E-2
6.135719708E0,-1.310799830E-2,3.522096667E-3,-1.105505787E-2,1.750540170E-2
6.145743708E0,-9.792895988E-3,3.515971592E-3,-1.300023030E-2,1.665139202E-2
6.155767708E0,-7.627752610E-3,-1.602735836E-3,-1.064807363E-2,1.319594044E-2
6.165791708E0,-6.316944957E-3,-9.289683774E-3,-7.993967272E-3,1.378787623E-2
6.175815708E0,-5.247497465E-3,-9.840700775E-3,-2.209477127E-3,1.136914291E-2
6.185839708E0,-3.125757212E-3,-4.318103194E-3,1.938129775E-3,5.672100173E-3
6.195863708E0,-1.952589140E-3,3.583478276E-3,4.341261461E-3,5.958227251E-3
6.205886708E0,-1.799891470E-4,3.405845491E-3,5.937560461E-3,6.847393945E-3
6.215910708E0,1.794432756E-3,2.626621630E-3,5.486259237E-3,6.341779759E-3
6.225934708E0,4.544945434E-3,4.809348378E-3,2.974365838E-3,7.254875117E-3
6.235958708E0,3.470113501E-3,4.077580757E-3,2.541443333E-3,5.926827715E-3
6.245982708E0,-8.045264985E-4,1.584329177E-3,3.157165833E-3,3.622852181E-3
6.256006708E0,-5.851857364E-3,2.668802626E-4,1.274102833E-3,5.994897640E-3
6.266030708E0,-6.461189128E-3,-2.805608790E-3,-6.171562709E-3,9.365179758E-3
6.276054708E0,-1.593374414E-3,-3.975887783E-3,-1.107700448E-2,1.187630220E-2
6.286078708E0,5.503949709E-3,-3.045645310E-3,-8.052985184E-3,1.021860989E-2
6.296101708E0,4.612914752E-3,1.647850033E-3,1.689179335E-3,5.181478463E-3
6.306125708E0,3.338059876E-3,9.560634382E-3,8.291688748E-3,1.308818077E-2
6.316149708E0,4.014834762E-3,1.401775144E-2,3.927568439E-3,1.510106114E-2
6.326173708E0,8.125157095E-3,1.486623473E-2,3.138207365E-3,1.722995817E-2
6.336197708E0,1.166096330E-2,1.176162530E-2,4.892121069E-4,1.656964765E-2
6.346221708E0,1.197761483E-2,5.216374062E-3,2.253556624E-3,1.325716157E-2
6.356245708E0,9.733913466E-3,3.273022361E-3,4.710748326E-3,1.129835813E-2
6.366269708E0,2.138578566E-3,-1.237839926E-3,5.853510927E-3,6.353688389E-3
6.376293708E0,-5.140860099E-3,-4.007011652E-3,6.370326038E-3,9.114035263E-3
6.386316708E0,-9.061299264E-3,-1.084494404E-2,3.844317514E-3,1.464577526E-2
6.396340708E0,-1.100391336E-2,-1.066457108E-2,1.221952494E-3,1.537245437E-2
6.406364708E0,-8.871519938E-3,-1.241959445E-2,1.150046941E-3,1.530597270E-2
6.416388708E0,-3.891517874E-3,-1.095217559E-2,4.508617800E-3,1.246682382E-2
6.426412708E0,-4.120981321E-4,-5.028506275E-3,3.988503013E-3,6.431473899E-3
6.436436708E0,1.225459855E-4,-5.501097068E-3,8.946931921E-3,1.050355546E-2
6.446460708E0,-1.874459558E-4,-7.188209333E-3,7.934930734E-3,1.070834325E-2
6.456484708E0,6.982757477E-4,-5.084028468E-3,5.980009213E-3,7.880066286E-3
6.466508708E0,-5.755141610E-4,4.108715802E-4,6.442068145E-3,6.480761837E-3
6.476531708E0,-3.343219636E-3,-2.994898940E-3,8.517313749E-3,9.627625392E-3
6.486555708E0,-6.166703068E-3,-9.807264432E-3,1.149233058E-2,1.631822063E-2
6.496579708E0,-8.570238948E-3,-5.869007669E-3,1.426574588E-2,1.764669238E-2
6.506603708E0,-5.872456357E-3,4.902413115E-3,1.165185310E-2,1.393861825E-2
6.516627708E0,-1.062461990E-3,7.871245034E-3,8.378349245E-3,1.154478497E-2
6.526651708E0,2.499249531E-3,5.040836986E-3,4.729819018E-3,7.350338338E-3
6.536675708E0,9.715350345E-3,-6.666951813E-3,1.136682462E-3,1.183758108E-2
6.546699708E0,1.406402700E-2,-9.403882548E-3,2.891972195E-3,1.716372237E-2
6.556722708E0,1.504294574E-2,-2.997055184E-3,1.098739356E-2,1.886783966E-2
6.566746708E0,1.100985426E-2,1.101277024E-2,1.429237798E-2,2.113693609E-2
6.576770708E0,3.237372730E-3,1.223224867E-2,1.324825548E-2,1.832006449E-2
6.586794708E0,-2.336623613E-3,9.851382114E-3,8.925946429E-3,1.349748344E-2
6.596818708E0,-7.628018968E-3,-4.178953823E-4,3.875474911E-3,8.566248637E-3
6.606842708E0,-1.024484076E-2,-7.644383237E-3,1.440014224E-3,1.286339761E-2
6.616866708E0,-1.192643866E-2,-6.790316664E-3,-1.575117931E-4,1.372490982E-2
6.626890708E0,-6.063490175E-3,-4.610475153E-4,-1.312524546E-3,6.221028741E-3
6.636914708E0,2.526055323E-3,2.455741400E-3,-1.132386737E-3,3.700529832E-3
6.646937708E0,1.416087337E-2,6.150344387E-3,2.406422049E-3,1.562523400E-2
6.656961708E0,2.002837509E-2,4.084178247E-3,3.871214110E-3,2.080390875E-2
6.666985708E0,1.976951584E-2,-6.709880196E-3,2.412600908E-3,2.101611030E-2
6.677009708E0,8.644007146E-3,-1.408120990E-2,1.368805766E-3,1.657929314E-2
6.687033708E0,-3.062449396E-3,-1.299011335E-2,2.939538099E-4,1.334945879E-2
6.697057708E0,-1.148614660E-2,-5.063625518E-3,-4.235128872E-3,1.324795017E-2
6.707081708E0,-1.103687100E-2,9.852123912E-4,8.877972141E-5,1.108111216E-2
6.717105708E0,-7.951937616E-3,7.739890367E-3,3.308326006E-3,1.157947476E-2
6.727129708E0,-1.074057887E-3,1.219855528E-2,3.792222589E-3,1.281948921E-2
6.737152708E0,5.330909509E-3,5.666404963E-3,1.988199074E-3,8.029923845E-3
6.747176708E0,6.501102820E-3,-4.416588694E-3,4.476923030E-3,9.045077854E-3
6.757200708E0,2.315054880E-3,-1.317862049E-2,6.254527252E-3,1.477005850E-2
6.767224708E0,-1.295392634E-3,-1.514909416E-2,4.947182257E-3,1.598898710E-2
6.777248708E0,-1.482384978E-4,-1.463793032E-2,-2.962935716E-3,1.493552700E-2
6.787272708E0,4.198573064E-3,-1.547629200E-2,-1.034202240E-2,1.908143226E-2
6.797296708E0,1.332266256E-2,-2.535228245E-2,-1.586168632E-2,3.273873327E-2
6.807320708E0,1.562469825E-2,-2.353787236E-2,-1.386431605E-2,3.147033349E-2
6.817344708E0,1.540875249E-2,-8.444318548E-3,-9.718580171E-3,2.007951617E-2
6.827367708E0,1.848416962E-2,6.776178721E-3,-7.367008366E-3,2.102032199E-2
6.837391708E0,2.472906373E-2,1.535473578E-2,-3.349469276E-3,2.930040014E-2
6.847415708E0,3.067217395E-2,1.778380573E-2,6.799837574E-3,3.610102203E-2
6.857439708E0,3.049888089E-2,1.937558502E-2,1.315270364E-2,3.845242052E-2
6.867463708E0,2.111363411E-2,1.328866463E-2,1.028101705E-2,2.698283648E-2
6.877487708E0,2.059848048E-3,-1.034563640E-3,7.003467064E-3,7.373048679E-3
6.887511708E0,-2.007341757E-2,-6.759560667E-3,6.990417372E-3,2.230470104E-2
6.897535708E0,-3.189111128E-2,-7.271884475E-3,8.038791828E-3,3.368301437E-2
6.907559708E0,-2.999707125E-2,-3.053969704E-3,1.284739561E-2,3.277509098E-2
6.917583708E0,-1.756535657E-2,7.774185389E-3,1.738292165E-2,2.590647940E-2
6.927606708E0,-1.096686465E-4,1.636021771E-2,2.100082487E-2,2.662148373E-2
6.937630708E0,1.730055921E-2,1.792589761E-2,1.706989668E-2,3.019981005E-2
6.947654708E0,2.748928033E-2,1.384753361E-2,1.514789276E-2,3.430558810E-2
6.957678708E0,2.197760344E-2,1.022243872E-2,1.419314928E-2,2.808841029E-2
6.967702708E0,7.619969081E-3,-4.059828352E-3,1.555109583E-2,1.778715032E-2
6.977726708E0,-6.262980402E-3,-1.912561432E-2,1.710871980E-2,2.641443430E-2
6.987750708E0,-1.703706384E-2,-2.311662771E-2,1.734707318E-2,3.354938105E-2
6.997774708E0,-2.111978643E-2,-1.622838713E-2,1.067021396E-2,2.869249717E-2
7.007798708E0,-1.409197040E-2,-1.144747995E-2,6.268806756E-3,1.920745598E-2
7.017821708E0,-4.753169604E-3,-5.555692129E-3,6.045950577E-3,9.487457757E-3
7.027845708E0,3.076524008E-3,1.117124921E-3,8.321888745E-3,8.942415800E-3
7.037869708E0,5.755543243E-3,3.119348781E-3,1.158628985E-2,1.330784458E-2
7.047893708E0,5.723319016E-3,5.771857221E-3,1.426889189E-2,1.642169273E-2
7.057917708E0,5.474526435E-3,8.256226778E-3,1.796258800E-2,2.051317352E-2
7.067941708E0,8.187755011E-3,7.788042538E-3,1.683047786E-2,2.027209717E-2
7.077965708E0,1.315929834E-2,5.100131501E-3,1.301880088E-2,1.920072005E-2
7.087986708E0,1.612099819E-2,-2.281085588E-3,8.934576996E-3,1.857193044E-2
7.098010708E0,1.435649488E-2,-5.417036358E-3,5.453242920E-3,1.628468871E-2
7.108033708E0,1.731713116E-2,-4.041779786E-3,7.407790981E-4,1.779797093E-2
7.118057708E0,2.818423510E-2,-3.817928582E-2,-1.243047602E-2,4.905635237E-2
7.128081708E0,2.397750691E-2,-1.386462525E-2,-6.341158878E-3,2.841406283E-2
7.138105708E0,1.352614723E-2,-5.462662317E-3,-2.238178626E-3,1.475827843E-2
7.148129708E0,3.397347871E-3,-1.107287779E-2,1.460685860E-3,1.167408234E-2
7.158153708E0,-6.994258612E-3,-1.265368611E-2,1.243523788E-3,1.451143608E-2
7.168177708E0,-1.120631397E-2,-1.568036899E-2,2.776439767E-3,1.947213553E-2
7.178201708E0,-1.145173330E-2,-1.097776741E-2,3.308862913E-3,1.620500375E-2
7.188225708E0,-8.091889322E-3,-3.503073007E-3,1.668355428E-3,8.974051656E-3
7.198248708E0,-2.464422490E-3,4.938591737E-4,8.882605471E-4,2.665761035E-3
7.208272708E0,5.556486081E-3,2.677651355E-3,-4.160027485E-3,7.439770361E-3
7.218296708E0,1.274736691E-2,2.737048315E-3,-7.803070359E-3,1.519456165E-2
7.228320708E0,1.442569122E-2,1.616123831E-3,-6.983615458E-3,1.610848560E-2
7.238344708E0,1.268878393E-2,-3.597435309E-3,-7.460107561E-3,1.515255699E-2
7.248368708E0,9.184862487E-3,-7.379656658E-3,-9.672928602E-3,1.524423101E-2
7.258392708E0,4.579718225E-3,-1.087596640E-2,-1.205587201E-2,1.687022567E-2
7.268416708E0,1.037713606E-3,-8.138502017E-3,-9.097366594E-3,1.225047524E-2
7.278440708E0,1.031249180E-3,-3.015010152E-3,-2.399997553E-3,3.989204099E-3
7.288463708E0,5.428660661E-3,5.675683729E-3,1.640990376E-6,7.853899990E-3
7.298487708E0,1.346085407E-2,1.013895217E-2,-6.794476416E-3,1.817024637E-2
7.308511708E0,1.998426765E-2,1.013096236E-2,-1.427209936E-2,2.656501782E-2
7.318535708E0,1.836603694E-2,3.729557153E-3,-2.077825740E-2,2.798136683E-2
7.328559708E0,9.831671603E-3,-5.273259245E-3,-2.401453257E-2,2.647955445E-2
7.338583708E0,1.625900390E-3,-1.771968044E-2,-2.365441993E-2,2.960003732E-2
7.348607708E0,-4.769681022E-3,-2.394215576E-2,-2.026208490E-2,3.172583749E-2
7.358631708E0,-4.619912244E-3,-1.165851485E-2,-1.393654197E-2,1.874811350E-2
7.368655708E0,-2.198033966E-3,8.784175850E-3,-6.979566999E-3,1.143273608E-2
7.378678708E0,4.197169561E-3,1.643566974E-2,-6.927265786E-3,1.832305878E-2
7.388702708E0,1.396164857E-2,1.975716464E-2,-6.727795117E-3,2.511048412E-2
7.398726708E0,1.874421164E-2,2.241547219E-2,-8.194075897E-3,3.034702199E-2
7.408750708E0,1.904861070E-2,2.280855551E-2,-6.420411170E-3,3.040232646E-2
7.418774708E0,1.605390757E-2,2.350264415E-2,-4.342239816E-3,2.879161817E-2
7.428798708E0,1.092705596E-2,1.650518738E-2,-9.906515479E-4,1.981926217E-2
7.438822708E0,6.313655525E-3,1.025197376E-2,-4.891064018E-3,1.299568079E-2
7.448846708E0,3.720802255E-3,5.611681379E-3,-8.997125551E-3,1.123759785E-2
7.458870708E0,4.521314986E-3,7.728336379E-3,-9.912988171E-3,1.335802406E-2
7.468893708E0,3.750063945E-3,-1.326589473E-2,-1.379640959E-2,1.950353455E-2
7.478917708E0,1.807054388E-3,-1.017447188E-2,-8.095379919E-3,1.312709030E-2
7.488941708E0,-1.430816832E-3,7.812517695E-3,-5.662813783E-5,7.942661789E-3
7.498965708E0,-7.180581335E-3,1.916424185E-2,2.698146272E-3,2.064240556E-2
7.508989708E0,-9.830692783E-3,1.930352487E-2,6.309126038E-3,2.256266084E-2
7.519013708E0,-8.052786812E-3,2.144969814E-2,7.437666878E-3,2.408849962E-2
7.529037708E0,-1.824717969E-3,2.214611508E-2,7.091722451E-3,2.332536251E-2
7.539061708E0,4.248173907E-3,2.183890715E-2,8.476674557E-3,2.380837791E-2
7.549085708E0,8.300705813E-3,1.457087323E-2,7.686514873E-3,1.844707496E-2
7.559108708E0,1.024454739E-2,8.898872882E-3,5.463041831E-3,1.462824377E-2
7.569132708E0,1.074575447E-2,2.783455653E-3,4.480069038E-3,1.197037522E-2
7.579156708E0,5.453947466E-3,5.687178113E-3,7.725446951E-3,1.103503822E-2
7.589180708E0,8.256400470E-4,6.711429451E-3,1.262592897E-2,1.432267604E-2
7.599204708E0,1.802747371E-3,1.127468306E-3,1.030690223E-2,1.052394016E-2
7.609228708E0,5.913069937E-3,-4.573027603E-3,4.259662703E-3,8.603586687E-3
7.619252708E0,9.732848033E-3,-1.215202967E-3,1.622014213E-3,9.941628599E-3
7.629276708E0,8.455330506E-3,9.116796777E-3,5.450308789E-3,1.357624629E-2
7.639300708E0,6.009236909E-3,8.177302778E-3,8.464847691E-3,1.321487251E-2
7.649324708E0,2.669898793E-3,-4.665525630E-3,9.851556271E-3,1.122268461E-2
7.659347708E0,-1.641804818E-3,-1.071115024E-2,3.342362586E-3,1.134000222E-2
7.669371708E0,-3.189634066E-3,-8.418435231E-3,2.623308916E-3,9.376863382E-3
7.679395708E0,-6.841873284E-3,-1.003091037E-2,9.632057510E-3,1.549861042E-2
7.689419708E0,-1.488568448E-2,-1.403284259E-2,1.669822261E-2,2.640709965E-2
7.699443708E0,-2.149963193E-2,-1.669311710E-2,1.369247213E-2,3.046929806E-2
7.709467708E0,-1.928095333E-2,-1.380784810E-2,7.303283084E-3,2.481430584E-2
7.719491708E0,-1.120760664E-2,-4.893629812E-3,2.418193035E-3,1.246618293E-2
7.729515708E0,-2.632494085E-3,-2.491990803E-3,6.333421916E-4,3.679832279E-3
7.739539708E0,2.300033811E-4,4.847268574E-4,3.550040070E-3,3.590354604E-3
7.749562708E0,2.384234453E-3,-4.470084328E-3,2.906354610E-3,5.840644223E-3
7.759586708E0,1.122628571E-3,-1.423568092E-2,-1.293985639E-3,1.433838572E-2
7.769610708E0,-4.249342601E-4,-2.300760150E-2,-7.432305254E-3,2.418200689E-2
7.779634708E0,-7.515241392E-3,-2.514136024E-2,-8.249040693E-3,2.750660866E-2
7.789658708E0,-1.144366991E-2,-2.512751333E-2,-2.161320765E-3,2.769514063E-2
7.799682708E0,-1.311440952E-2,-1.209368370E-2,1.037289575E-2,2.063593683E-2
7.809706708E0,-1.193063520E-2,-9.020152502E-4,1.463022456E-2,1.889966027E-2
7.819730708E0,-6.291638128E-3,7.366369944E-3,1.653822139E-2,1.916666072E-2
7.829754708E0,-2.521667164E-3,6.497113965E-3,1.255040430E-2,1.435562409E-2
7.839777708E0,-3.990524448E-3,1.697573811E-3,1.400842704E-2,1.466431281E-2
7.849801708E0,-9.072101675E-3,-2.374399686E-3,1.090424694E-2,1.438205145E-2
7.859825708E0,-8.462001570E-3,-4.305965267E-3,9.683141485E-3,1.356134346E-2
7.869849708E0,-6.705647334E-3,-6.912667770E-3,7.467125542E-3,1.218641234E-2
7.879873708E0,-1.450550510E-3,-5.582829937E-3,7.289381232E-3,9.295545473E-3
7.889897708E0,9.143237956E-3,-7.148378063E-4,4.063494038E-3,1.003104068E-2
7.899921708E0,2.028483711E-2,1.211959170E-3,4.533133470E-4,2.032606589E-2
7.909945708E0,2.559225075E-2,2.799735870E-3,-3.389772028E-4,2.574716926E-2
7.919969708E0,2.338725515E-2,3.179845866E-3,-1.798918704E-3,2.367089419E-2
7.929992708E0,1.241849270E-2,2.554287203E-4,1.291146968E-3,1.248804489E-2
7.940016708E0,1.444232184E-4,-6.968094967E-3,5.915937014E-3,9.141855189E-3
7.950040708E0,-1.366539858E-2,-1.412906870E-2,7.635273039E-3,2.108722588E-2
7.960064708E0,-2.451807261E-2,-6.771201268E-3,7.914052345E-3,2.663864252E-2
7.970088708E0,-2.869737148E-2,-1.562590478E-3,4.520919174E-3,2.909329011E-2
7.980112708E0,-2.178366669E-2,1.349257189E-3,6.805595942E-3,2.286186268E-2
7.990136708E0,-1.346661337E-2,1.686946023E-3,1.190980989E-2,1.805655101E-2
8.000160708E0,-8.829095168E-5,3.281503450E-4,6.888417993E-3,6.896794936E-3
8.010184708E0,7.727287710E-3,3.867491381E-3,5.961637478E-3,1.049807536E-2
8.020208708E0,1.540461555E-2,-7.396107540E-3,4.888605326E-5,1.708821163E-2
8.030231708E0,1.273479685E-2,-1.169471536E-2,-1.474974444E-3,1.735272220E-2
8.040255708E0,1.021874882E-2,-1.318350062E-2,-6.863131654E-3,1.803690916E-2
8.050279708E0,1.014631055E-2,-1.636411436E-2,-8.427472785E-3,2.101794838E-2
8.060303708E0,9.405625984E-3,-1.577522792E-2,-8.111943491E-3,2.007802887E-2
8.070327708E0,4.305671901E-3,-8.526637219E-3,-6.244534627E-3,1.141212362E-2
8.080351708E0,-2.441492863E-3,-6.718066521E-3,-5.131228361E-3,8.799023223E-3
8.090375750E0,-4.899857100E-3,-9.197736159E-3,-1.220644824E-2,1.605005697E-2
8.100399750E0,-2.704378567E-4,-1.093466766E-2,-1.775604859E-2,2.085467226E-2
8.110423750E0,6.911042612E-3,-6.942322478E-3,-1.679464802E-2,1.944269923E-2
8.120446750E0,1.186133921E-2,-3.652562620E-3,-1.003644988E-2,1.596129405E-2
8.130470750E0,8.482587524E-3,-6.783640943E-3,7.318039890E-3,1.309678523E-2
8.140494750E0,2.016691491E-3,-5.128597841E-3,1.369183604E-2,1.475926605E-2
8.150518750E0,-2.395100892E-3,3.430002835E-3,2.018668223E-3,4.645045653E-3
8.160542750E0,-2.518178895E-3,-4.609231837E-5,-9.104770608E-3,9.446702985E-3
8.170566750E0,9.997480083E-5,-1.093708910E-2,-1.340737380E-2,1.730282015E-2
8.180590750E0,6.371426396E-3,-1.209308207E-2,-9.488319978E-3,1.663928858E-2
8.190614750E0,1.627998427E-2,-8.864531294E-3,-3.984364681E-3,1.896029970E-2
8.200638750E0,2.620483190E-2,5.348741543E-3,3.362392541E-3,2.695566609E-2
8.210661750E0,3.057987243E-2,1.634413376E-2,4.729925189E-3,3.499473530E-2
8.220685750E0,2.711141109E-2,1.578367688E-2,1.997736748E-3,3.143475814E-2
8.230709750E0,1.910967752E-2,5.379239097E-3,-2.060654573E-3,1.995901515E-2
8.240733750E0,1.052413974E-2,-5.697251763E-3,-1.076621003E-2,1.609743686E-2
8.250757750E0,1.084185485E-2,-1.010052301E-2,-1.596017368E-2,2.177828105E-2
8.260781750E0,1.233746577E-2,-7.662733085E-3,-1.515440829E-2,2.099015556E-2
8.270805750E0,1.383629348E-2,-2.204051940E-3,-1.026617549E-2,1.736937597E-2
8.280829750E0,1.547602750E-2,5.338999443E-3,-5.890280940E-3,1.739849855E-2
8.290853750E0,1.999328099E-2,1.287681051E-2,-4.810420796E-5,2.378120787E-2
8.300877750E0,2.727373317E-2,1.496518403E-2,-1.158646308E-3,3.113126588E-2
8.310900750E0,3.677482530E-2,3.436093917E-3,-5.338477436E-3,3.731881374E-2
8.320924750E0,3.857127205E-2,-8.610122837E-3,-1.188116707E-2,4.126789761E-2
8.330948750E0,3.003504314E-2,-1.729122922E-2,-1.526737586E-2,3.787061116E-2
8.340972750E0,2.233008854E-2,-1.069337595E-2,-1.336082444E-2,2.813348135E-2
8.350996750E0,1.421064138E-2,-2.539309440E-3,-5.400902126E-3,1.541298689E-2
8.361020750E0,1.118731312E-2,6.824381649E-3,6.734381896E-3,1.473363700E-2
8.371044750E0,7.793114521E-3,1.033735741E-2,1.271451078E-2,1.814531280E-2
8.381068750E0,7.756869309E-3,1.132228039E-2,1.359223295E-2,1.931610342E-2
8.391092750E0,9.475939907E-3,8.956328034E-3,4.502065480E-3,1.379412348E-2
8.401115750E0,1.240587700E-2,5.284198560E-3,-8.845113218E-3,1.612651749E-2
8.411139750E0,1.412947476E-2,-4.042457789E-3,-1.411870494E-2,2.037943452E-2
8.421163750E0,1.640896685E-2,-7.470247336E-3,-1.783748716E-2,2.536207280E-2
8.431187750E0,1.768222451E-2,-5.365550518E-3,-1.269945037E-2,2.242155739E-2
8.441211750E0,1.999060437E-2,-1.422989648E-3,-7.080874406E-3,2.125530393E-2
8.451235750E0,2.297707461E-2,-1.059734728E-3,-1.790771261E-3,2.307110437E-2
8.461259750E0,2.332220599E-2,-6.372964010E-3,-6.335616112E-3,2.499359906E-2
8.471283750E0,2.253524214E-2,-5.954847671E-3,-6.292206235E-3,2.414309857E-2
8.481307750E0,1.657189243E-2,1.676440123E-3,-8.472003974E-3,1.868723953E-2
8.491331750E0,6.933912635E-3,5.576639436E-3,-4.101223778E-3,9.797861415E-3
8.501354750E0,3.214608179E-3,9.854792617E-3,-2.312287688E-5,1.036586600E-2
8.511378750E0,7.231986150E-3,1.490814053E-2,-1.606105827E-3,1.664733773E-2
8.521402750E0,1.065384969E-2,2.120649256E-2,-2.329954179E-3,2.384635247E-2
8.531426750E0,8.374981582E-3,1.626686007E-2,2.265064046E-3,1.843587720E-2
8.541450750E0,5.881255493E-4,4.913667217E-3,5.256911274E-3,7.219773772E-3
8.551474750E0,-6.319048814E-3,-1.555950148E-3,1.824362669E-3,6.758672794E-3
8.561498750E0,-7.326269522E-3,-1.671754755E-3,-3.266429529E-3,8.193811747E-3
8.571522750E0,-1.687558717E-3,2.048415132E-3,-1.225433126E-2,1.253844064E-2
8.581546750E0,1.165570971E-2,5.483119749E-3,-1.905125007E-2,2.299718027E-2
8.591569750E0,1.946835965E-2,4.482303746E-3,-1.756414212E-2,2.660088650E-2
8.601593750E0,1.987394504E-2,7.121006958E-3,-1.149895228E-2,2.403972411E-2
8.611617750E0,1.283521112E-2,3.561159130E-3,-2.879898064E-3,1.362785059E-2
8.621641750E0,5.813607015E-3,7.181846537E-3,-2.735444810E-3,9.636368845E-3
8.631665750E0,-3.934226115E-4,8.015681989E-3,-3.882202087E-3,8.915011618E-3
8.641689750E0,-5.208471324E-3,5.453892983E-3,-8.547370322E-3,1.139871316E-2
8.651713750E0,-5.183703732E-3,-4.454131238E-3,-1.157644950E-2,1.344337206E-2
8.661737750E0,-1.007865928E-2,-7.593516260E-3,-7.847493514E-3,1.486014860E-2
8.671761750E0,-1.540018804E-2,-3.699708730E-3,-2.991219284E-3,1.611834450E-2
8.681785750E0,-1.991713792E-2,-7.687346078E-5,-6.099510938E-5,1.991737967E-2
8.691808750E0,-1.610428840E-2,4.344240297E-3,6.849560887E-4,1.669400172E-2
8.701832750E0,-7.879654877E-3,5.826178007E-3,2.098615281E-3,1.002185099E-2
8.711856750E0,4.693927709E-3,6.589439698E-3,4.144320264E-4,8.100952214E-3
8.721880750E0,1.390479598E-2,1.477806643E-2,-9.764814749E-4,2.031472655E-2
8.731904750E0,1.998426020E-2,1.676531881E-2,-3.586281091E-4,2.608783595E-2
8.741928750E0,1.925611310E-2,8.059839718E-3,-6.142398342E-4,2.088387412E-2
8.751952750E0,1.332312170E-2,2.831788035E-3,2.487543505E-3,1.384602716E-2
8.761976750E0,1.901935786E-3,6.450491492E-4,8.082473651E-3,8.328254826E-3
8.772000750E0,-3.873395268E-3,-4.345714580E-3,7.113083731E-3,9.191538842E-3
8.782024750E0,-5.869407672E-3,-6.771674845E-3,1.123421825E-3,9.031478463E-3
8.792047750E0,-2.478404902E-3,-1.233927906E-2,-6.062053144E-3,1.396956645E-2
8.802071750E0,-3.844193183E-3,-1.304782555E-2,-6.085598841E-3,1.490161353E-2
8.812095750E0,-1.026107930E-2,-7.261042483E-3,-5.874676630E-3,1.387531303E-2
8.822119750E0,-1.803778298E-2,-9.351735935E-3,3.447238822E-3,2.060825163E-2
8.832143750E0,-2.974530682E-2,-6.812145002E-3,8.725358173E-3,3.173831238E-2
8.842167750E0,-3.155250102E-2,-9.078314528E-3,1.440779865E-2,3.585471764E-2
8.852191750E0,-2.714923024E-2,-1.123520918E-2,1.313081197E-2,3.218274151E-2
8.862215750E0,-2.012236603E-2,-1.276516169E-2,7.926627994E-3,2.511355011E-2
8.872239750E0,-1.280586421E-2,-1.361098140E-2,3.381942865E-3,1.899174849E-2
8.882262750E0,-8.851955645E-3,-7.470383774E-3,1.452106982E-3,1.167357559E-2
8.892286750E0,-5.309684202E-3,-1.700645778E-3,8.837883361E-4,5.644999930E-3
8.902310750E0,-3.128535580E-3,2.559681889E-3,3.024543636E-3,5.048521610E-3
8.912334750E0,2.105357125E-4,3.774882294E-3,2.594176680E-3,4.585173308E-3
8.922358750E0,2.817530651E-3,-2.237023786E-3,-9.688115679E-4,3.725768409E-3
8.932382750E0,-4.064920940E-4,-7.536980323E-3,-7.168117911E-3,1.040928540E-2
8.942406750E0,-2.050008159E-3,-6.974529475E-3,-5.376772024E-3,9.041917509E-3
8.952430750E0,-7.394972257E-3,-9.379363619E-3,-3.651842475E-3,1.248975700E-2
8.962454750E0,-5.084854085E-3,-8.651290089E-3,-2.179057570E-3,1.026882920E-2
8.972478750E0,2.202379983E-5,-7.441150490E-3,4.316391423E-4,7.453691570E-3
8.982501750E0,3.693211358E-3,-7.092207670E-3,2.266397700E-3,8.311183929E-3
8.992525750E0,6.967035122E-3,9.562935680E-3,4.541003611E-3,1.267320129E-2
9.002549750E0,1.222645864E-2,1.308061089E-2,-4.887227435E-3,1.856000173E-2
9.012573750E0,1.781723276E-2,4.042374901E-3,-9.892106056E-3,2.077614835E-2
9.022597750E0,1.826359890E-2,-3.275373019E-4,-7.944962010E-3,1.991955690E-2
9.032621750E0,1.877039857E-2,2.760664327E-3,-2.177353948E-3,1.909685839E-2
9.042645750E0,1.665451005E-2,7.486598101E-3,2.581598237E-4,1.826166758E-2
9.052669750E0,1.969131269E-2,-1.241866685E-2,-5.550727248E-3,2.393285722E-2
9.062693750E0,1.414218545E-2,-8.660009131E-3,-8.004303090E-3,1.841374583E-2
9.072716750E0,7.407850120E-3,1.388604566E-2,1.247785054E-3,1.578782680E-2
9.082740750E0,8.436247706E-3,1.252907049E-2,4.447950516E-3,1.574586125E-2
9.092768333E0,1.032576058E-2,5.383809097E-3,2.126739826E-3,1.183764141E-2
9.102792333E0,1.468942314E-2,2.813548781E-4,-7.692314684E-4,1.471224082E-2
9.112816333E0,2.077820897E-2,1.276311930E-3,-1.514916541E-3,2.087241990E-2
9.122840333E0,2.765552141E-2,1.064502075E-2,-2.374320291E-3,2.972846663E-2
9.132864333E0,3.468600288E-2,1.349460334E-2,-5.946418270E-3,3.769062225E-2
9.142888333E0,4.366669059E-2,1.273686532E-2,-6.151589099E-3,4.590043195E-2
9.152912333E0,5.083778501E-2,1.641815342E-2,-3.800816834E-3,5.355821463E-2
9.162936333E0,4.693206027E-2,1.559182536E-2,2.438439056E-3,4.951433413E-2
9.172959333E0,3.731751814E-2,1.358087268E-2,2.805156168E-3,3.981087997E-2
9.182983333E0,1.887797564E-2,8.026842028E-3,5.799718667E-3,2.131771315E-2
9.193007333E0,-5.921277916E-4,1.678931061E-3,1.016836800E-2,1.032303892E-2
9.203031333E0,-1.697299257E-2,-2.208132762E-3,6.356798112E-3,1.825834629E-2
9.213055333E0,-2.437072061E-2,-8.363383822E-4,5.898468196E-3,2.508831226E-2
9.223079333E0,-1.947822794E-2,2.836959669E-3,5.284342915E-3,2.038072580E-2
9.233103333E0,-6.008225027E-3,1.152951829E-2,3.747965209E-3,1.353055074E-2
9.243127333E0,1.305422280E-2,2.084088884E-2,-2.316473983E-4,2.459286566E-2
9.253151333E0,2.851893380E-2,2.911027148E-2,-1.615159679E-3,4.078414192E-2
9.263175333E0,3.647914529E-2,2.664010413E-2,-7.610293105E-4,4.517745405E-2
9.273198333E0,3.970742971E-2,1.426492631E-2,-3.889444517E-3,4.237093196E-2
9.283222333E0,3.738861158E-2,5.856682546E-3,-4.450519104E-3,3.810532938E-2
9.293246333E0,3.158904612E-2,2.762950025E-4,-3.407891374E-3,3.177354084E-2
9.303270333E0,1.976389252E-2,1.918407623E-3,-6.129745860E-3,2.078137434E-2
9.313294333E0,1.339787059E-2,-9.636653122E-4,-5.807769950E-3,1.463426728E-2
9.323318333E0,1.113060117E-2,-5.308757070E-3,-5.188695621E-3,1.337892919E-2
9.333342333E0,9.915666655E-3,1.328106504E-3,-3.517029574E-3,1.060442404E-2
9.343366333E0,9.888223372E-3,1.355925016E-2,-2.603193512E-3,1.698254524E-2
9.353390333E0,8.724155836E-3,1.490574423E-2,-2.425676212E-4,1.727283837E-2
9.363414333E0,9.776617400E-3,1.610809192E-2,-1.666134223E-3,1.891636531E-2
9.373437333E0,9.311096743E-3,1.334346458E-2,-4.549272358E-3,1.689498294E-2
9.383461333E0,8.215858601E-3,8.365362883E-3,-5.358229391E-3,1.289147978E-2
9.393485333E0,8.314928040E-3,1.513315598E-3,-2.597596496E-3,8.841700061E-3
9.403509333E0,5.898848176E-3,1.206580433E-3,-1.516675577E-3,6.209070055E-3
9.413533333E0,6.127347238E-3,1.972505590E-3,2.715876326E-5,6.437072322E-3
9.423557333E0,1.360756159E-2,7.079220377E-3,-3.658871632E-3,1.576922430E-2
9.433581333E0,2.508791536E-2,8.858744986E-3,-5.157964770E-3,2.710139222E-2
9.443605333E0,3.295968473E-2,8.119450882E-3,-5.166753195E-3,3.433601081E-2
9.453629333E0,3.100785799E-2,1.122496277E-2,-5.690064747E-3,3.346436737E-2
9.463653333E0,2.424936742E-2,9.779940359E-3,-7.398840971E-4,2.615772318E-2
9.473676333E0,1.177139208E-2,6.995072588E-3,5.063942634E-3,1.459932282E-2
9.483700333E0,-9.476863779E-4,-3.091236576E-3,5.177550018E-3,6.104168840E-3
9.493724333E0,-9.826665744E-3,-8.177341893E-3,3.182576038E-3,1.317425787E-2
9.503748333E0,-1.264828444E-2,-4.014554899E-3,9.625651874E-4,1.330497208E-2
9.513772333E0,-1.356308069E-2,1.968769357E-3,4.206122831E-4,1.371167843E-2
9.523796333E0,-5.213943310E-3,1.063817064E-3,2.886223607E-3,6.053692947E-3
9.533820333E0,-2.739067655E-3,1.851047506E-3,8.288978599E-3,8.923902437E-3
9.543844333E0,2.419667784E-3,9.160462767E-3,1.395756751E-2,1.686957501E-2
9.553868333E0,9.143084288E-3,1.493659243E-2,9.988659061E-3,2.016112828E-2
9.563891333E0,2.017048746E-2,9.493452497E-3,3.517285455E-3,2.256868410E-2
9.573915333E0,2.853867412E-2,-2.407415537E-3,-1.497979276E-3,2.867918255E-2
9.583939333E0,2.955721319E-2,-2.638989128E-3,-5.590594374E-4,2.968005496E-2
9.593963333E0,2.516006678E-2,6.830380298E-4,5.395502318E-3,2.574115279E-2
9.603987333E0,1.746014133E-2,1.682418748E-3,1.072683465E-2,2.056093504E-2
9.614011333E0,7.728952914E-3,9.622999933E-4,1.366936136E-2,1.573258321E-2
9.624035333E0,2.849814948E-3,3.469004063E-3,1.356624532E-2,1.428980219E-2
9.634059333E0,-4.458468175E-4,-1.334538683E-5,1.406585332E-2,1.407292390E-2
9.644083333E0,-3.782588057E-3,-2.070155460E-3,1.601581648E-2,1.658613558E-2
9.654107333E0,-8.595985360E-3,-1.587590668E-3,1.245304011E-2,1.521478282E-2
9.664130333E0,-8.445756510E-3,-5.900566466E-4,9.764101356E-3,1.292349199E-2
9.674154333E0,-6.088858470E-3,9.159609908E-4,8.572603576E-3,1.055474841E-2
9.684178333E0,-4.558600020E-3,5.748644471E-3,1.030440442E-2,1.264944655E-2
9.694202333E0,-6.296578795E-3,6.758515257E-3,1.566161960E-2,1.818270501E-2
9.704226333E0,-4.777505063E-3,6.380990613E-3,1.771992259E-2,1.943031786E-2
9.714250333E0,-3.272819100E-3,3.540196689E-3,1.896814629E-2,1.957127771E-2
9.724274333E0,1.264209393E-3,1.503728214E-3,1.949918456E-2,1.959789842E-2
9.734298333E0,1.561950892E-3,-1.734143123E-3,1.736759022E-2,1.752370203E-2
9.744322333E0,2.556934720E-3,-8.656051010E-3,1.424162462E-2,1.686087205E-2
9.754346333E0,5.363107659E-3,-5.059984978E-3,1.305678487E-2,1.499486588E-2
9.764369333E0,6.845575292E-3,3.145714058E-3,1.598236896E-2,1.766899928E-2
9.774393333E0,4.063370638E-3,7.657907903E-3,1.707506366E-2,1.914973455E-2
9.784417333E0,-1.241786778E-2,5.045613274E-3,1.415650547E-2,1.949534048E-2
9.794441333E0,-2.636430971E-2,-3.687158227E-3,9.473604150E-3,2.825634686E-2
9.804465333E0,-3.809458017E-2,-1.488211751E-2,4.956994671E-3,4.119764867E-2
9.814489333E0,-3.901842982E-2,-1.306024939E-2,6.172194611E-3,4.160653754E-2
9.824513333E0,-3.320761770E-2,-5.419260822E-3,1.220451295E-2,3.579195996E-2
9.834537333E0,-2.465087734E-2,5.775869824E-3,1.602854580E-2,2.996565878E-2
9.844561333E0,-1.131870039E-2,1.678163931E-2,1.153425314E-2,2.329754047E-2
9.854585333E0,-8.652609540E-4,1.186863892E-2,8.272414096E-3,1.449296730E-2
9.864608333E0,2.609810792E-3,1.567945932E-3,6.789456587E-3,7.440852610E-3
9.874632333E0,-5.233198404E-3,-4.533356056E-3,7.875759155E-3,1.048643242E-2
9.884656333E0,-1.517770905E-2,-4.722174257E-3,6.962827872E-3,1.735346518E-2
9.894680333E0,-2.244520932E-2,-3.937873058E-3,1.804285217E-3,2.285934625E-2
9.904704333E0,-2.065351419E-2,-3.705653595E-3,1.332476735E-3,2.102557993E-2
9.914728333E0,-1.300571393E-2,-2.415618626E-3,1.510109752E-3,1.331406173E-2
9.924752333E0,-3.897809191E-3,3.072905820E-3,3.451346420E-3,6.045449427E-3
9.934776333E0,1.558741555E-3,-5.021216348E-4,-2.043287037E-3,2.618553663E-3
9.944800333E0,2.986701438E-3,-5.048051476E-3,-8.361424319E-3,1.021355109E-2
9.954824333E0,2.487891354E-3,-7.754622027E-3,-1.133484393E-2,1.395716494E-2
9.964847333E0,-1.935845008E-3,-4.768016282E-3,-9.264553897E-3,1.059780327E-2
9.974871333E0,-9.301083162E-3,2.387266140E-4,-2.808785299E-3,9.718868928E-3
9.984895333E0,-1.082634274E-2,5.615332164E-3,-9.635882452E-5,1.219634935E-2
9.994919333E0,-1.498992927E-2,8.060113527E-3,-8.517364040E-5,1.701971399E-2
1.000494333E1,-1.558959205E-2,7.240667008E-3,-4.141537007E-3,1.768092101E-2
1.001496733E1,-1.669959724E-2,1.605417812E-3,-6.681926548E-3,1.805829606E-2
1.002499133E1,-1.831057668E-2,-6.353911012E-4,-7.244387642E-3,1.970182967E-2
1.003501533E1,-1.766689122E-2,-1.157636987E-3,-4.808660597E-3,1.834618177E-2
1.004503933E1,-1.557666343E-2,2.991448622E-3,-7.059940603E-3,1.736156588E-2
1.005506333E1,-8.005563170E-3,2.835653722E-3,-1.182833035E-2,1.456157177E-2
1.006508633E1,1.137342304E-3,-7.427241653E-4,-1.303346362E-2,1.310405894E-2
1.007511033E1,7.659156807E-3,-6.067181937E-3,-1.887377538E-2,2.125306511E-2
1.008513433E1,1.015911438E-2,-6.840315647E-3,-2.067391202E-2,2.402931878E-2
1.009515508E1,5.704443902E-3,-7.917031646E-3,-1.996391267E-2,2.222111337E-2
1.010517908E1,-4.551679012E-4,-9.462772869E-3,-1.536260918E-2,1.804885063E-2
1.011520308E1,-3.477855818E-3,-7.627322339E-3,-1.315325033E-2,1.559742034E-2
1.012522708E1,-2.578879241E-3,-6.230948959E-3,-1.267676149E-2,1.435881697E-2
1.013525108E1,-2.046710579E-4,1.366690267E-4,-1.284986734E-2,1.285222391E-2
1.014527508E1,-1.051975531E-3,2.946071094E-3,-1.139561739E-2,1.181719438E-2
1.015529908E1,-3.168123309E-3,2.818771871E-3,-1.212905161E-2,1.284898335E-2
1.016532208E1,-6.380195264E-3,1.182500273E-3,-1.454693638E-2,1.592854533E-2
1.017534608E1,-7.023615297E-3,4.035544582E-3,-2.019576728E-2,2.175972904E-2
1.018537008E1,-6.469111424E-3,6.285674870E-3,-2.109724656E-2,2.294456196E-2
1.019539408E1,-9.173817933E-3,2.635013778E-3,-1.883568987E-2,2.111599976E-2
1.020541808E1,-1.097972691E-2,1.955040265E-3,-1.531829406E-2,1.894800038E-2
1.021544208E1,-7.019606885E-3,4.749761894E-3,-1.249667443E-2,1.509973479E-2
1.022546608E1,-5.029652268E-3,2.022555098E-3,-7.562688552E-3,9.304965835E-3
1.023549008E1,-1.677265507E-3,1.457432285E-3,-2.529580379E-3,3.366913325E-3
1.024551408E1,-3.174174344E-3,9.283558466E-4,-3.141998081E-3,4.561729856E-3
1.025553808E1,-6.766618462E-4,6.156407297E-3,-4.071175121E-3,7.411726447E-3
1.026556108E1,4.351912066E-3,3.945339471E-3,-5.231195595E-3,7.865764396E-3
1.027558508E1,-3.187397961E-4,6.247109734E-3,-4.308942705E-3,7.595720000E-3
1.028560908E1,-5.610841326E-3,8.432398550E-3,-1.845257822E-3,1.029523492E-2
1.029563308E1,-1.185089443E-2,7.336773910E-3,3.092396073E-4,1.394157736E-2
1.030565708E1,-1.459979638E-2,5.561999977E-3,2.510502934E-3,1.582379611E-2
1.031568108E1,-1.516811363E-2,4.114039242E-3,1.224462409E-3,1.576376536E-2
1.032570508E1,-1.352118887E-2,1.371171884E-2,1.118255779E-3,1.928948621E-2
1.033572908E1,-8.128020912E-3,1.176920999E-2,3.287134226E-3,1.467597626E-2
1.034575308E1,-2.433829010E-3,9.518691339E-3,4.167419393E-3,1.067222530E-2
1.035577708E1,2.790227765E-3,3.845359664E-3,2.243430354E-4,4.756310727E-3
1.036580108E1,7.638431620E-3,5.282393657E-3,-1.889038133E-3,9.477224563E-3
1.037582408E1,8.959094062E-3,1.174908131E-2,6.371022202E-3,1.609025177E-2
1.038584808E1,6.910364144E-3,2.076508477E-2,1.264324691E-2,2.527436588E-2
1.039587208E1,4.322569817E-3,2.224313840E-2,1.521719154E-2,2.729477485E-2
1.040589608E1,2.236448927E-3,2.248863131E-2,1.611573994E-2,2.775711289E-2
1.041592008E1,-3.749538213E-3,2.021002956E-2,1.662893221E-2,2.643909450E-2
1.042594408E1,-1.301485486E-2,1.602126472E-2,1.829191856E-2,2.758009527E-2
1.043596808E1,-2.235535905E-2,7.327640429E-3,1.712359115E-2,2.909765912E-2
1.044599208E1,-2.884768136E-2,1.903795986E-3,1.951350830E-2,3.487965260E-2
1.045601608E1,-3.157955036E-2,4.851301201E-4,1.739416458E-2,3.605634914E-2
1.046604008E1,-2.741192468E-2,9.929213673E-3,1.580761373E-2,3.316449231E-2
1.047606308E1,-1.902216859E-2,1.607578993E-2,1.691069826E-2,3.010391396E-2
1.048608708E1,-9.269719012E-3,1.523637865E-2,1.994281076E-2,2.675426369E-2
1.049611108E1,1.495577628E-3,2.060531080E-2,2.227440849E-2,3.038033672E-2
1.050613508E1,9.291317314E-3,2.708568424E-2,2.475940809E-2,3.785486966E-2
1.051615908E1,1.095259748E-2,2.941781282E-2,2.293647453E-2,3.887735802E-2
1.052618308E1,5.794752389E-3,2.122798562E-2,2.123657614E-2,3.058101854E-2
1.053620708E1,-6.357518025E-3,9.450420737E-3,1.912309229E-2,2.225805801E-2
1.054623108E1,-1.837342791E-2,3.973742016E-3,1.890865341E-2,2.666290780E-2
1.055625508E1,-2.500283346E-2,4.780147225E-3,1.804339141E-2,3.120185029E-2
1.056627908E1,-2.631868236E-2,3.580727614E-3,1.829650067E-2,3.225300898E-2
1.057630208E1,-2.345072292E-2,6.714903284E-4,2.101745270E-2,3.149794633E-2
1.058632608E1,-1.967300288E-2,1.161513105E-2,1.916980557E-2,2.982314131E-2
1.059635008E1,-1.176181715E-2,1.831218228E-2,1.993546449E-2,2.951438813E-2
1.060637408E1,-6.618207786E-3,1.506305858E-2,2.965988778E-2,3.391762597E-2
1.061639808E1,-8.949272335E-3,1.868735440E-2,3.714523837E-2,4.253322729E-2
1.062642208E1,-1.180585381E-2,1.898226887E-2,3.075716086E-2,3.802246257E-2
1.063644608E1,-1.604214311E-2,6.850506179E-3,2.050399035E-2,2.692013021E-2
1.064647008E1,-2.472029254E-2,-4.814226180E-3,1.454602089E-2,2.908360983E-2
1.065649408E1,-3.273854032E-2,-9.620964527E-3,2.046809345E-2,3.979092648E-2
1.066651808E1,-3.854708746E-2,-8.817859925E-3,2.920507453E-2,4.915861048E-2
1.067654208E1,-3.628153726E-2,-2.996988827E-3,3.625978902E-2,5.138194418E-2
1.068656508E1,-2.700030617E-2,3.055673791E-3,3.286654502E-2,4.264461815E-2
1.069658908E1,-1.290259603E-2,5.055441521E-3,3.172804415E-2,3.462229425E-2
1.070661308E1,-1.882608747E-3,8.458926342E-3,2.727263048E-2,2.861632443E-2
1.071663708E1,1.544613158E-3,1.349895913E-2,2.601801232E-2,2.935208157E-2
1.072666108E1,-1.676972257E-3,1.724776067E-2,2.154358663E-2,2.764821167E-2
1.073668508E1,-7.870686240E-3,1.205779240E-2,1.933289692E-2,2.410599433E-2
1.074670908E1,-8.821775205E-3,1.019155327E-2,1.605779119E-2,2.096530786E-2
1.075673308E1,1.041508513E-3,5.157379899E-3,1.220899075E-2,1.329446361E-2
1.076675708E1,1.685141027E-2,-2.382555231E-2,9.369956329E-3,3.065000902E-2
1.077678108E1,1.612356864E-2,3.429503180E-3,1.155694295E-2,2.013191218E-2
1.078680408E1,6.481348537E-3,-4.026060924E-5,9.828926995E-3,1.177358508E-2
1.079682808E1,-1.228940859E-2,-5.105747841E-4,1.081323065E-2,1.637730769E-2
1.080685208E1,-2.759027481E-2,4.315278027E-3,9.064653888E-3,2.936005515E-2
1.081687608E1,-3.263802826E-2,1.900323434E-3,7.541326340E-3,3.355180652E-2
1.082690008E1,-2.737601101E-2,6.743262056E-4,1.899841242E-3,2.745013828E-2
1.083692408E1,-1.342264563E-2,4.466667771E-3,-2.585987328E-3,1.438074640E-2
1.084694808E1,3.487538779E-4,1.499211602E-2,-3.764919005E-3,1.546155837E-2
1.085697208E1,1.248983946E-2,2.279384807E-2,-7.547480054E-4,2.600240843E-2
1.086699608E1,1.844730787E-2,2.511028573E-2,1.519815065E-3,3.119518320E-2
1.087702008E1,1.837700047E-2,2.106494457E-2,-5.787559785E-4,2.796034682E-2
1.088704308E1,1.482856181E-2,1.744291000E-2,-6.028864067E-3,2.367463952E-2
1.089706708E1,9.170676582E-3,1.827198197E-3,-1.770203188E-2,2.002003734E-2
1.090709108E1,3.987564705E-3,-1.449190360E-2,-1.869858801E-2,2.399068852E-2
1.091711508E1,1.814158866E-3,-3.127035126E-2,-2.649046667E-2,4.102280908E-2
1.092713908E1,4.014954902E-3,-3.162921965E-2,-2.328689769E-2,3.948172998E-2
1.093716308E1,1.593979076E-2,-8.855194785E-3,-2.104824409E-2,2.784815942E-2
1.094718708E1,2.298824303E-2,1.190333627E-2,-1.854401454E-2,3.184382526E-2
1.095721108E1,2.426016890E-2,2.438184246E-2,-1.170235500E-2,3.633146225E-2
1.096723508E1,2.304463275E-2,2.241984196E-2,-1.031618193E-2,3.376578181E-2
1.097725908E1,1.338081993E-2,1.347561553E-2,-1.224431023E-2,2.259561216E-2
1.098728208E1,1.593969762E-3,4.331411794E-3,-2.114299685E-2,2.164089147E-2
1.099730608E1,-1.393998228E-2,-4.019462503E-3,-2.578302100E-2,2.958451211E-2
1.100733008E1,-2.570162155E-2,9.842574364E-4,-2.140169777E-2,3.346004752E-2
1.101735408E1,-2.864601277E-2,-1.287483331E-2,-3.365037218E-2,4.602937027E-2
1.102737808E1,-2.863572724E-2,-1.736819558E-2,-3.734711185E-2,5.016438832E-2
1.103740208E1,-2.055915818E-2,-4.497403279E-3,-3.022848256E-2,3.683295778E-2
1.104742608E1,-5.671966821E-3,1.200544648E-5,-3.660078347E-2,3.703766599E-2
1.105745008E1,9.420965798E-3,-8.061176632E-4,-4.151245207E-2,4.257567497E-2
1.106747408E1,2.350875549E-2,-5.784679670E-4,-3.849802166E-2,4.511201483E-2
1.107749808E1,2.491703443E-2,-2.491416642E-3,-3.688840568E-2,4.458497769E-2
1.108752208E1,2.310076356E-2,-3.107294207E-3,-3.684584796E-2,4.359950764E-2
1.109754487E1,2.108315378E-2,-5.839697085E-3,-3.381543979E-2,4.027512140E-2
1.110756888E1,1.484441385E-2,-1.126915216E-2,-3.355322406E-2,3.838188710E-2
1.111759287E1,7.539628539E-3,-1.683409326E-2,-3.450929746E-2,3.912958351E-2
1.112761687E1,-3.170819953E-3,-1.694936492E-2,-3.841311857E-2,4.210585171E-2
1.113764088E1,-9.874262847E-3,-9.040310048E-3,-4.091782123E-2,4.305225159E-2
1.114766487E1,-1.289876085E-2,6.869507954E-3,-4.081065580E-2,4.334833097E-2
1.115768887E1,-9.294438176E-3,1.363020856E-2,-3.751099855E-2,4.097858195E-2
1.116771288E1,-5.209955387E-3,7.971147075E-3,-2.680663764E-2,2.844782316E-2
1.117773687E1,4.258260597E-4,-3.196286969E-3,-2.318527177E-2,2.340842595E-2
1.118776087E1,5.140713416E-3,-1.126894727E-2,-2.633147500E-2,2.909918698E-2
1.119778387E1,1.009259559E-2,-6.210005842E-3,-3.115392663E-2,3.333154366E-2
1.120780788E1,2.014393732E-2,-5.346206017E-3,-3.640706465E-2,4.195038123E-2
1.121783187E1,2.976247668E-2,-1.269972697E-2,-3.884651884E-2,5.055828428E-2
1.122785587E1,3.387904167E-2,-1.326251123E-2,-3.624717519E-2,5.135699931E-2
1.123787987E1,3.766366094E-2,-1.271043718E-2,-3.479681537E-2,5.282920526E-2
1.124790387E1,3.706194088E-2,-9.558415972E-3,-2.813320793E-2,4.750187540E-2
1.125792787E1,3.594581038E-2,-8.930176497E-3,-2.699790150E-2,4.583378690E-2
1.126795187E1,2.953739837E-2,-1.390813943E-2,-2.265365049E-2,3.973766633E-2
1.127797588E1,1.938915811E-2,-2.248777822E-2,-2.162114158E-2,3.673027886E-2
1.128799987E1,9.093882516E-3,-2.059977688E-2,-2.359459922E-2,3.261525132E-2
1.129802387E1,-2.492853091E-4,-2.034997381E-2,-2.598531917E-2,3.300636892E-2
1.130804687E1,-8.568175137E-3,-2.297380567E-2,-2.471813187E-2,3.481659683E-2
1.131807087E1,-1.188354380E-2,-2.307367325E-2,-3.010304458E-2,3.974677728E-2
1.132809487E1,-1.401652396E-2,-2.011632733E-2,-3.808251396E-2,4.529246558E-2
1.133811887E1,-1.706025004E-2,-1.978023723E-2,-4.212572426E-2,4.956699063E-2
1.134814288E1,-2.079478651E-2,-2.274837345E-2,-4.267391190E-2,5.264004557E-2
1.135816687E1,-2.582150325E-2,-2.744592354E-2,-4.341134056E-2,5.748541762E-2
1.136819087E1,-2.438310347E-2,-3.784778342E-2,-5.232488737E-2,6.902814124E-2
1.137821488E1,-1.681226864E-2,-5.003547668E-2,-6.678877771E-2,8.512897352E-2
1.138823887E1,-1.423299126E-2,-5.854043365E-2,-7.834615558E-2,9.883157646E-2
1.139826287E1,-1.973334001E-4,-1.234294251E-1,-9.856513888E-2,1.579555270E-1
1.140828687E1,-6.216869690E-3,-8.951368183E-2,-9.442264587E-2,1.302573789E-1
1.141830988E1,-1.300127245E-2,-6.405492872E-2,-8.932109177E-2,1.106811836E-1
1.142833387E1,-2.195442654E-2,-6.725466251E-2,-8.082156628E-2,1.074118804E-1
1.143835787E1,-2.288546786E-2,-5.489706621E-2,-6.535445899E-2,8.836649720E-2
1.144838188E1,-1.693211123E-2,-7.418528199E-2,-5.910502747E-2,9.635121549E-2
1.145840587E1,-1.781308465E-2,-6.536488980E-2,-5.713348836E-2,8.862341844E-2
1.146842987E1,-2.118009329E-2,-5.703381449E-2,-4.967818409E-2,7.854536474E-2
1.147845387E1,-1.868311316E-2,-5.308727920E-2,-4.515986517E-2,7.215768395E-2
1.148847788E1,-1.068853540E-3,-6.381519139E-2,-5.553458631E-2,8.460266767E-2
1.149850187E1,3.101105429E-2,-8.466215432E-2,-7.299932837E-2,1.160097746E-1
1.150852587E1,7.202762365E-2,-1.042501032E-1,-8.271560073E-2,1.513206304E-1
1.151854988E1,1.093595549E-1,-1.435724646E-1,-8.386155963E-2,1.990108691E-1
1.152857287E1,1.134213582E-1,-1.590880454E-1,-7.690820843E-2,2.099721010E-1
1.153859687E1,9.438721836E-2,-1.550344378E-1,-7.506663352E-2,1.964169630E-1
1.154862087E1,6.693004817E-2,-1.042746753E-1,-6.747310609E-2,1.410867084E-1
1.155864488E1,4.264175519E-2,-5.706002563E-2,-4.589670524E-2,8.473885392E-2
1.156866887E1,1.751242764E-2,-4.561573640E-2,-2.235217951E-2,5.373174534E-2
1.157869287E1,-1.203612774E-4,-3.608880937E-2,-3.308713669E-3,3.624036748E-2
1.158871688E1,-7.747940719E-3,-3.403185308E-2,4.483588040E-3,3.518948950E-2
1.159874087E1,-6.534605287E-3,-1.556842308E-2,9.054637514E-3,1.915889674E-2
1.160876487E1,1.524233632E-2,-4.313525744E-3,2.292219736E-2,2.786328144E-2
1.161878887E1,4.501540959E-2,-5.111142993E-3,4.205514491E-2,6.181541957E-2
1.162881188E1,6.603664905E-2,-2.175619593E-3,6.248660013E-2,9.094035152E-2
1.163883587E1,5.568281189E-2,2.410365455E-2,7.446310669E-2,9.605371393E-2
1.164885987E1,2.081877552E-2,4.943810403E-2,6.653747708E-2,8.546802560E-2
1.165888388E1,-2.980365604E-2,4.959496111E-2,4.381805286E-2,7.258057479E-2
1.166890787E1,-9.655218571E-2,2.727315389E-2,1.962903515E-2,1.022323261E-1
1.167893187E1,-1.687744558E-1,1.957688481E-2,2.998127602E-3,1.699325164E-1
1.168895587E1,-2.297825515E-1,2.258506976E-2,-4.289768171E-3,2.309296613E-1
1.169897987E1,-2.616933584E-1,1.372313499E-2,-6.684482563E-3,2.621381708E-1
1.170900387E1,-2.651333809E-1,8.356884122E-3,-1.462059747E-2,2.656676665E-1
1.171902787E1,-2.547060549E-1,1.382435299E-2,-1.975250989E-2,2.558445794E-1
1.172905188E1,-2.274479717E-1,2.050976083E-2,-2.117649838E-2,2.293505487E-1
1.173907487E1,-1.794764549E-1,2.151776850E-2,-2.944374830E-2,1.831440595E-1
1.174909887E1,-1.029686481E-1,2.160665020E-2,-5.349219963E-2,1.180288322E-1
1.175912287E1,-7.736408152E-3,1.913603581E-2,-7.617700845E-2,7.892386518E-2
1.176914688E1,8.274156600E-2,1.827408187E-2,-8.952855319E-2,1.232699097E-1
1.177917087E1,1.489115208E-1,9.837720543E-3,-1.013908014E-1,1.804203879E-1
1.178919487E1,1.853060275E-1,3.097370965E-3,-1.088125482E-1,2.149141415E-1
1.179921888E1,1.913428903E-1,2.412938513E-3,-1.028955430E-1,2.172680756E-1
1.180924287E1,1.739260107E-1,-7.248481270E-4,-8.165843785E-2,1.921428715E-1
1.181926687E1,1.299359053E-1,-2.921156818E-3,-5.124992505E-2,1.397083658E-1
1.182929088E1,7.634078711E-2,5.920263939E-3,-1.607399434E-2,7.823898386E-2
1.183931487E1,4.166642576E-2,5.180970300E-3,9.403403848E-3,4.302740398E-2
1.184933787E1,3.845383227E-2,-1.521456055E-2,2.266004495E-2,4.715567523E-2
1.185936187E1,4.049301520E-2,-8.690880612E-3,3.064632975E-2,5.152099778E-2
1.186938588E1,4.082809389E-2,-1.245099492E-2,3.835649416E-2,5.738624547E-2
1.187940987E1,1.548945066E-2,-2.136326209E-2,4.806238413E-2,5.482978038E-2
1.188943387E1,-3.259017318E-2,-3.045096621E-2,6.073407829E-2,7.535256463E-2
1.189945787E1,-9.782563150E-2,-4.601500928E-2,7.808723301E-2,1.333598561E-1
1.190948187E1,-1.526509225E-1,-7.234376669E-2,9.707067907E-2,1.948297756E-1
1.191950587E1,-1.739269197E-1,-9.586507082E-2,1.027259007E-1,2.235918064E-1
1.192952987E1,-1.588093638E-1,-1.052152216E-1,8.894734085E-2,2.102433979E-1
1.193955388E1,-1.255587339E-1,-9.477243572E-2,6.821170449E-2,1.714632522E-1
1.194957687E1,-7.825408876E-2,-7.342406362E-2,4.193152115E-2,1.152087149E-1
1.195960087E1,-2.591524646E-2,-4.968092218E-2,1.509298198E-2,5.803095840E-2
1.196962487E1,2.158470824E-2,-2.698012814E-2,5.908434745E-3,3.505333858E-2
1.197964888E1,5.633683130E-2,1.616095775E-3,8.377984166E-3,5.697930278E-2
1.198967287E1,8.810853958E-2,2.585906722E-2,1.589768380E-2,9.319089255E-2
1.199969687E1,1.152083352E-1,2.768200077E-2,1.995980181E-2,1.201567616E-1
1.200972088E1,1.372321099E-1,4.032959417E-2,2.888884768E-2,1.459235885E-1
1.201974487E1,1.497228742E-1,6.315261871E-2,3.751748800E-2,1.667715629E-1
1.202976887E1,1.545346826E-1,7.427020371E-2,2.797181532E-2,1.737223467E-1
1.203979288E1,1.514161229E-1,7.173407823E-2,4.708571360E-3,1.676150080E-1
1.204981687E1,1.339359134E-1,7.222520560E-2,-1.763338037E-2,1.531869620E-1
1.205983987E1,1.141707301E-1,7.823969424E-2,-4.076267034E-2,1.442844436E-1
1.206986387E1,1.125794649E-1,7.483801246E-2,-6.583260000E-2,1.503622135E-1
1.207988788E1,1.219151691E-1,7.853181660E-2,-7.340503484E-2,1.625387763E-1
1.208991187E1,1.372199059E-1,8.674485981E-2,-5.977140367E-2,1.729930460E-1
1.209993583E1,1.492275745E-1,9.071030468E-2,-3.561786562E-2,1.782297975E-1
1.210995983E1,1.539043784E-1,8.633986115E-2,-9.772844613E-3,1.767388973E-1
1.211998383E1,1.543853432E-1,6.944023818E-2,9.465565905E-3,1.695475680E-1
1.213000783E1,1.594721824E-1,3.929837421E-2,1.347622927E-2,1.647948662E-1
1.214003183E1,1.657551229E-1,4.858641885E-3,1.350472588E-2,1.663753130E-1
1.215005583E1,1.911493242E-1,-6.308510900E-3,-5.320300814E-3,1.913273818E-1
1.216007983E1,2.267595083E-1,-1.537737250E-2,-1.447145455E-2,2.277405567E-1
1.217010283E1,2.616931200E-1,-6.663877517E-3,-1.385174319E-2,2.621441724E-1
1.218012683E1,2.905665934E-1,1.149355434E-2,-1.578280143E-2,2.912218121E-1
1.219015083E1,3.008935750E-1,3.715407476E-2,-1.730777696E-2,3.036724022E-1
1.220017483E1,2.758657336E-1,7.743491977E-2,-8.619586006E-4,2.865289039E-1
1.221019883E1,2.251649648E-1,8.634773642E-2,2.202188969E-2,2.421572972E-1
1.222022283E1,1.598615795E-1,9.338726848E-2,4.759995267E-2,1.911613508E-1
1.223024683E1,9.454118460E-2,1.074737534E-1,7.247244567E-2,1.604397040E-1
1.224027083E1,4.530066997E-2,1.219392419E-1,8.938031644E-2,1.578295612E-1
1.225029483E1,1.768912748E-2,1.218607724E-1,1.015609726E-1,1.596169923E-1
1.226031883E1,9.645583108E-3,1.266265064E-1,9.390012175E-2,1.579384129E-1
1.227034283E1,2.031061053E-2,1.389392018E-1,6.174165756E-2,1.533905309E-1
1.228036583E1,5.489788204E-2,1.441861540E-1,1.730042510E-2,1.552505368E-1
1.229038983E1,1.077648550E-1,1.528698504E-1,-2.389809117E-2,1.885565536E-1
1.230041383E1,1.686220914E-1,1.275426447E-1,-7.266216725E-2,2.235628021E-1
1.231043783E1,2.212813646E-1,8.462307602E-2,-1.101077572E-1,2.612474411E-1
1.232046183E1,2.569261491E-1,3.069859743E-2,-1.287216544E-1,2.890029659E-1
1.233048583E1,2.926321328E-1,-2.232805826E-2,-1.372839361E-1,3.240046087E-1
1.234050983E1,3.483127058E-1,-3.767026216E-2,-1.443338543E-1,3.789103471E-1
1.235053383E1,4.312486351E-1,-3.840542212E-2,-1.574222744E-1,4.606865899E-1
1.236055783E1,4.992178380E-1,-1.820747927E-2,-1.632412821E-1,5.255451249E-1
1.237058183E1,5.171726942E-1,1.957312971E-2,-1.557076722E-1,5.404586776E-1
1.238060583E1,4.790492356E-1,4.437674582E-2,-1.365329176E-1,5.000986935E-1
1.239062883E1,3.960810602E-1,2.623683959E-2,-1.198138595E-1,4.146371171E-1
1.240065283E1,2.788937092E-1,-7.367992308E-3,-1.147828847E-1,3.016804584E-1
1.241067683E1,1.554551572E-1,-3.578582779E-2,-1.167673096E-1,1.976905055E-1
1.242070083E1,5.255645886E-2,-6.516955048E-2,-1.178645343E-1,1.445728194E-1
1.243072483E1,-1.558845211E-2,-9.674149752E-2,-1.060647592E-1,1.444010053E-1
1.244074883E1,-6.139056012E-2,-1.099694148E-1,-7.757665962E-2,1.479196105E-1
1.245077283E1,-9.428964555E-2,-1.152265444E-1,-3.165853769E-2,1.522168086E-1
1.246079683E1,-1.285565346E-1,-1.207310334E-1,1.698862575E-2,1.771761226E-1
1.247082083E1,-1.694530249E-1,-1.041876823E-1,4.863736778E-2,2.047803563E-1
1.248084483E1,-2.116660029E-1,-7.888206095E-2,5.456050485E-2,2.323827124E-1
1.249086883E1,-2.472282797E-1,-4.902421683E-2,4.252056405E-2,2.556035886E-1
1.250089183E1,-2.697711289E-1,-2.307889983E-2,2.417431585E-2,2.718335799E-1
1.251091583E1,-2.774831951E-1,-7.168513257E-4,2.359934617E-3,2.774941562E-1
1.252093983E1,-2.664211988E-1,6.627614610E-3,-2.239467949E-2,2.674428951E-1
1.253096383E1,-2.462411672E-1,4.403963685E-4,-4.549036175E-2,2.504082255E-1
1.254098783E1,-2.192628086E-1,-4.692047834E-3,-7.469085604E-2,2.316827972E-1
1.255101183E1,-1.850647330E-1,1.608745754E-2,-1.132236049E-1,2.175484921E-1
1.256103583E1,-1.573212594E-1,4.026816040E-2,-1.461298913E-1,2.184615493E-1
1.257105983E1,-1.458615959E-1,6.269107759E-2,-1.636229157E-1,2.279873569E-1
1.258108383E1,-1.533639878E-1,5.046183616E-2,-1.567711383E-1,2.250424393E-1
1.259110783E1,-1.734233499E-1,2.628744580E-2,-1.335984915E-1,2.204886506E-1
1.260113183E1,-1.874917597E-1,1.826627180E-2,-1.114580259E-1,2.188828640E-1
1.261115483E1,-1.764324158E-1,2.070100233E-2,-1.035368815E-1,2.056132649E-1
1.262117883E1,-1.422725916E-1,2.828941308E-2,-1.110965312E-1,1.827134928E-1
1.263120283E1,-1.062776893E-1,2.613062412E-2,-1.192624792E-1,1.618681430E-1
1.264122683E1,-9.736435115E-2,1.790917851E-2,-1.113912389E-1,1.490253792E-1
1.265125083E1,-1.207034290E-1,1.047690981E-3,-9.181487560E-2,1.516587841E-1
1.266127483E1,-1.550717950E-1,-2.422197908E-2,-7.175887376E-2,1.725783933E-1
1.267129883E1,-1.816716641E-1,-4.035196453E-2,-6.242619827E-2,1.962903584E-1
1.268132283E1,-1.919964701E-1,-4.238688573E-2,-5.759948492E-2,2.048828770E-1
1.269134683E1,-1.927374750E-1,-3.512208164E-2,-4.718136042E-2,2.015127184E-1
1.270137083E1,-1.932911426E-1,-2.934355475E-2,-2.941435017E-2,1.977061304E-1
1.271139483E1,-1.929244250E-1,-1.740236208E-2,-4.196397960E-3,1.937531567E-1
1.272141783E1,-1.901741773E-1,-1.143448334E-2,2.184638754E-2,1.917660809E-1
1.273144183E1,-1.798422188E-1,-1.151349396E-2,4.646752402E-2,1.861048494E-1
1.274146583E1,-1.764373630E-1,-1.260032970E-2,6.911717355E-2,1.899107555E-1
1.275148983E1,-1.607934237E-1,-3.713150322E-2,8.374671638E-2,1.850588721E-1
1.276151383E1,-1.260258555E-1,-4.287221283E-2,9.077453613E-2,1.611228082E-1
1.277153783E1,-8.676353842E-2,-5.776435509E-2,8.982331306E-2,1.375967292E-1
1.278156183E1,-5.676462501E-2,-4.683154449E-2,8.534813672E-2,1.126930373E-1
1.279158583E1,-2.110847272E-2,-3.753741458E-2,8.348162472E-2,9.393512006E-2
1.280160983E1,1.619735360E-2,-4.685235023E-2,7.966478169E-2,9.382949658E-2
1.281163383E1,5.037135631E-2,-8.624467254E-2,7.316944003E-2,1.238110820E-1
1.282165783E1,7.163643092E-2,-1.155956313E-1,7.148046792E-2,1.536345843E-1
1.283168083E1,7.868082076E-2,-1.203417182E-1,6.562263519E-2,1.580478755E-1
1.284170483E1,7.962571084E-2,-1.120845824E-1,7.226349413E-2,1.553229540E-1
1.285172883E1,8.751708269E-2,-1.054041237E-1,8.998095989E-2,1.639080297E-1
1.286175283E1,1.175154597E-1,-1.075743362E-1,8.393105865E-2,1.800737173E-1
1.287177683E1,1.616342366E-1,-1.254815608E-1,5.790207535E-2,2.126591142E-1
1.288180083E1,1.991336644E-1,-1.278256774E-1,4.314762726E-2,2.405313656E-1
1.289182483E1,2.202404886E-1,-1.174414083E-1,3.586622328E-2,2.521601539E-1
1.290184883E1,2.173693329E-1,-9.272700548E-2,3.602281958E-2,2.390509736E-1
1.291187283E1,1.851531118E-1,-8.933757991E-2,4.121731594E-2,2.096705633E-1
1.292189683E1,1.285649240E-1,-1.080742478E-1,5.970044807E-2,1.782501788E-1
1.293192083E1,6.085996702E-2,-1.113843173E-1,9.093762934E-2,1.561411354E-1
1.294194383E1,-5.642358214E-3,-8.954399824E-2,1.374334991E-1,1.641277871E-1
1.295196783E1,-4.526064917E-2,-5.045212060E-2,1.947852522E-1,2.062407266E-1
1.296199183E1,-5.129936710E-2,-3.461177694E-3,2.453123480E-1,2.506426797E-1
1.297201583E1,-2.549233660E-2,1.775724068E-2,2.670490444E-1,2.688500901E-1
1.298203983E1,1.982640848E-2,1.732953824E-2,2.778987885E-1,2.791435759E-1
1.299206383E1,7.419887185E-2,-1.761004329E-2,2.665824890E-1,2.772756925E-1
1.300208783E1,1.286471933E-1,-7.284294069E-2,2.388544530E-1,2.809050446E-1
1.301211183E1,1.741014868E-1,-1.343833804E-1,1.988892257E-1,2.965251166E-1
1.302213583E1,2.039784342E-1,-1.637290120E-1,1.559755802E-1,3.045369807E-1
1.303215983E1,2.154107541E-1,-1.489053071E-1,1.209779829E-1,2.884618793E-1
1.304218383E1,2.134709060E-1,-1.059884727E-1,9.796001762E-2,2.576810996E-1
1.305220683E1,1.964153945E-1,-1.716577820E-2,1.021916643E-1,2.220738783E-1
1.306223083E1,1.719625145E-1,3.766630962E-2,1.128467098E-1,2.091034127E-1
1.307225483E1,1.345762312E-1,6.612136215E-2,1.312534064E-1,1.992743166E-1
1.308227883E1,8.284059167E-2,7.024686784E-2,1.433870345E-1,1.798805930E-1
1.309230283E1,3.149941564E-2,5.041737109E-2,1.446202993E-1,1.563622572E-1
1.310232683E1,-3.075463511E-2,1.401861757E-2,1.375099272E-1,1.416027870E-1
1.311235083E1,-1.007468328E-1,-6.006162614E-3,1.399128437E-1,1.725155128E-1
1.312237483E1,-1.604184210E-1,-4.711600021E-3,1.454362273E-1,2.165824674E-1
1.313239883E1,-1.948838234E-1,1.227793843E-2,1.441148967E-1,2.426923069E-1
1.314242283E1,-1.923900396E-1,2.247704566E-2,1.391590238E-1,2.385044628E-1
1.315244683E1,-1.685838997E-1,3.015916795E-2,1.353619695E-1,2.182956011E-1
1.316246983E1,-1.324479878E-1,3.265322000E-2,1.305951923E-1,1.888486338E-1
1.317249383E1,-9.841042012E-2,4.090309143E-2,1.137415320E-1,1.558679241E-1
1.318251783E1,-6.683305651E-2,5.906185508E-2,8.883671463E-2,1.258845584E-1
1.319254183E1,-4.913837463E-2,8.498300612E-2,6.885235757E-2,1.199055392E-1
1.320256583E1,-3.754243627E-2,8.328124881E-2,4.685837775E-2,1.026689266E-1
1.321258983E1,-3.766661137E-2,6.874939054E-2,1.796520501E-2,8.042388267E-2
1.322261383E1,-4.538045824E-2,4.933468252E-2,-8.879458532E-3,6.761761363E-2
1.323263783E1,-5.628013983E-2,2.385949343E-2,-3.283112496E-2,6.938740760E-2
1.324266183E1,-7.760593295E-2,-2.480235184E-3,-5.066711456E-2,9.271455599E-2
1.325268583E1,-1.083890051E-1,-1.262009796E-2,-4.512678459E-2,1.180841648E-1
1.326270983E1,-1.450444758E-1,-1.878425106E-2,-3.435909376E-2,1.502374633E-1
1.327273283E1,-1.647201478E-1,-1.414195728E-2,-3.316524997E-2,1.686198561E-1
1.328275683E1,-1.644335985E-1,3.208092973E-2,-3.056760132E-2,1.702996554E-1
1.329278083E1,-1.321776509E-1,4.924234003E-2,-2.598696575E-2,1.434261547E-1
1.330280483E1,-9.200653434E-2,3.970263153E-2,-2.098261937E-2,1.023805237E-1
1.331282883E1,-6.912002712E-2,3.219407797E-2,-1.511987858E-2,7.773446812E-2
1.332285283E1,-6.667631119E-2,2.230895683E-2,-7.177000865E-3,7.067481426E-2
1.333287683E1,-6.706093252E-2,2.451118641E-2,-8.606907912E-3,7.191693676E-2
1.334290083E1,-5.271341652E-2,3.327564895E-2,-2.360876091E-2,6.665843297E-2
1.335292483E1,-1.477760077E-2,4.180279374E-2,-4.970497265E-2,6.660657141E-2
1.336294883E1,2.253514901E-2,3.986880556E-2,-7.190295309E-2,8.524898392E-2
1.337297283E1,3.550469130E-2,2.708793618E-2,-8.075514436E-2,9.228072784E-2
1.338299583E1,2.013345622E-2,1.546590030E-2,-7.850903273E-2,8.251192854E-2
1.339301983E1,-1.396173146E-2,1.214338001E-2,-7.873321325E-2,8.087836850E-2
1.340304383E1,-4.794819281E-2,4.230749328E-4,-8.845161647E-2,1.006126068E-1
1.341306783E1,-7.786186039E-2,-1.206717268E-2,-9.977506846E-2,1.271343787E-1
1.342309183E1,-1.006872803E-1,-2.160208859E-2,-1.095882878E-1,1.503800900E-1
1.343311583E1,-1.116292626E-1,-2.545455843E-2,-1.196245104E-1,1.655869871E-1
1.344313983E1,-1.094824895E-1,-3.310502321E-2,-1.253788024E-1,1.697121156E-1
1.345316383E1,-9.410177916E-2,-3.090943396E-2,-1.187727824E-1,1.546528751E-1
1.346318783E1,-6.048576161E-2,-2.320783772E-2,-9.880466759E-2,1.181503002E-1
1.347321183E1,-2.724892460E-2,-2.040956169E-2,-6.972017884E-2,7.758838469E-2
1.348323583E1,2.798722824E-3,-1.030269545E-3,-5.082558095E-2,5.091300408E-2
1.349325883E1,4.133777693E-2,2.978604846E-2,-4.388760775E-2,6.724687798E-2
1.350328283E1,9.369552135E-2,5.634708703E-2,-4.554569349E-2,1.184409352E-1
1.351330683E1,1.613362134E-1,7.553026080E-2,-6.703367829E-2,1.903357771E-1
1.352333083E1,2.329888344E-1,8.980534971E-2,-9.909787029E-2,2.686432312E-1
1.353335483E1,2.829571664E-1,1.101283878E-1,-1.321784407E-1,3.311557942E-1
1.354337883E1,2.967813611E-1,1.099518239E-1,-1.559423506E-1,3.528265815E-1
1.355340283E1,2.730255127E-1,8.957698196E-2,-1.664063931E-1,3.320512821E-1
1.356342683E1,2.270897031E-1,6.938755512E-2,-1.840370446E-1,3.004230348E-1
1.357345083E1,1.875007004E-1,6.130263954E-2,-1.968323141E-1,2.786709280E-1
1.358347483E1,1.641098857E-1,6.715679914E-2,-1.988829523E-1,2.664517198E-1
1.359349883E1,1.498604566E-1,7.364746183E-2,-1.997983903E-1,2.603872152E-1
1.360352183E1,1.318564266E-1,8.445217460E-2,-2.003182322E-1,2.542551497E-1
1.361354583E1,1.008586884E-1,8.493810147E-2,-1.931125224E-1,2.338362726E-1
1.362356983E1,4.441299289E-2,8.651495725E-2,-1.686950624E-1,1.947187095E-1
1.363359383E1,-3.536830097E-2,8.298931271E-2,-1.315001845E-1,1.594692487E-1
1.364361783E1,-1.185457483E-1,6.550912559E-2,-9.295146167E-2,1.642696387E-1
1.365364183E1,-1.624117047E-1,4.043697566E-2,-5.429588631E-2,1.759566824E-1
1.366366583E1,-1.444630623E-1,3.824439645E-2,-9.586207569E-3,1.497468050E-1
1.367368983E1,-6.811975688E-2,7.471723109E-2,2.507803217E-2,1.041723264E-1
1.368371383E1,4.289783537E-2,9.932164848E-2,2.713000029E-2,1.115394596E-1
1.369373783E1,1.530835330E-1,6.697911769E-2,-4.549429286E-3,1.671570148E-1
1.370376183E1,2.339237779E-1,1.284424216E-2,-6.347213686E-2,2.427221057E-1
1.371378583E1,2.741240263E-1,-5.223461986E-2,-1.237840429E-1,3.052784411E-1
1.372380883E1,2.723886967E-1,-1.105266809E-1,-1.456414014E-1,3.280597005E-1
1.373383283E1,2.341087759E-1,-1.310296655E-1,-1.393095255E-1,3.022959412E-1
1.374385683E1,1.767490804E-1,-1.179820448E-1,-1.236368194E-1,2.458578114E-1
1.375388083E1,1.235139892E-1,-7.793062180E-2,-1.130551323E-1,1.846898759E-1
1.376390483E1,8.119130135E-2,-5.487749726E-2,-1.031777337E-1,1.422997254E-1
1.377392883E1,2.807563730E-2,-5.317332223E-3,-8.102332056E-2,8.591445691E-2
1.378395283E1,-4.154791310E-2,3.247984499E-2,-5.772785470E-2,7.818999055E-2
1.379397683E1,-1.229003519E-1,3.892448917E-2,-2.737160027E-2,1.317908072E-1
1.380400083E1,-2.110704333E-1,2.120195515E-2,-9.532415308E-3,2.123466921E-1
1.381402483E1,-2.865219414E-1,-9.102080017E-3,-2.426298568E-3,2.866767478E-1
1.382404883E1,-3.227848709E-1,-4.265045375E-2,3.472869284E-3,3.256089601E-1
1.383407183E1,-3.159198463E-1,-5.656654015E-2,3.466880880E-4,3.209442988E-1
1.384409583E1,-2.717894018E-1,-5.315103754E-2,-1.309907995E-2,2.772473582E-1
1.385411983E1,-2.135162055E-1,-5.317693204E-2,-3.023167327E-2,2.221056285E-1
1.386414383E1,-1.658458859E-1,-3.877162561E-2,-5.409439281E-2,1.787017072E-1
1.387416783E1,-1.249040216E-1,-1.735814661E-2,-8.597338945E-2,1.526228802E-1
1.388419183E1,-8.336669952E-2,1.178535819E-2,-1.155528501E-1,1.429732927E-1
1.389421583E1,-2.470475994E-2,2.512887865E-2,-1.469618082E-1,1.511276241E-1
1.390423983E1,3.166450560E-2,3.168984130E-2,-1.666406989E-1,1.725572644E-1
1.391426383E1,6.574323028E-2,3.317352012E-2,-1.720124036E-1,1.871120567E-1
1.392428783E1,5.907547474E-2,3.302811459E-2,-1.582712829E-1,1.721353161E-1
1.393431183E1,1.542297378E-2,3.222254291E-2,-1.343236566E-1,1.389928239E-1
1.394433483E1,-5.195047706E-2,8.491113782E-3,-1.130607277E-1,1.247143906E-1
1.395435883E1,-1.173289269E-1,-2.989790589E-2,-1.058978289E-1,1.608549410E-1
1.396438283E1,-1.649635434E-1,-7.478974760E-2,-1.000748277E-1,2.069334389E-1
1.397440683E1,-1.935289055E-1,-1.043437123E-1,-8.050815761E-2,2.341422880E-1
1.398443083E1,-1.977590770E-1,-1.067434922E-1,-6.449350715E-2,2.337995682E-1
1.399445483E1,-1.852276623E-1,-9.803156555E-2,-5.174655467E-2,2.158638012E-1
1.400447883E1,-1.806765795E-1,-8.250933141E-2,-2.992141619E-2,2.008658938E-1
1.401450283E1,-1.942233741E-1,-7.315851003E-2,-7.429043762E-3,2.076778210E-1
1.402452683E1,-2.076667398E-1,-6.118174270E-2,6.917138584E-3,2.166022328E-1
1.403455083E1,-2.078112215E-1,-3.367245197E-2,1.432018913E-2,2.110080700E-1
1.404457483E1,-1.926032454E-1,-8.172420785E-3,1.177047752E-2,1.931355553E-1
1.405459783E1,-1.707832217E-1,-1.400207868E-3,-1.433797181E-3,1.707949800E-1
1.406462183E1,-1.484395713E-1,-1.091195364E-2,-1.544309035E-2,1.496391195E-1
1.407464583E1,-1.112844422E-1,-1.190992724E-2,-2.555958554E-2,1.148014193E-1
1.408466983E1,-5.338519067E-2,-6.201441400E-3,-2.521071024E-2,5.936342619E-2
1.409469362E1,1.036858652E-2,6.537066773E-3,-1.761989854E-2,2.146396173E-2
1.410471763E1,6.652586162E-2,2.674380317E-2,-8.791519329E-3,7.223719322E-2
1.411474162E1,9.902883321E-2,2.919094823E-2,-5.079219118E-4,1.032428169E-1
1.412476562E1,9.915400296E-2,1.890901662E-2,3.432758152E-3,1.009992626E-1
1.413478963E1,8.462838829E-2,7.642296609E-3,-8.874195628E-4,8.497738708E-2
1.414481362E1,7.458826900E-2,1.488449704E-2,-1.803125255E-2,7.816702753E-2
1.415483762E1,8.029679209E-2,2.111856267E-2,-3.607928008E-2,9.052780214E-2
1.416486062E1,1.047965437E-1,2.038539201E-2,-4.572471604E-2,1.161405590E-1
1.417488463E1,1.369941533E-1,2.417242853E-3,-4.747612029E-2,1.450076656E-1
1.418490862E1,1.658332497E-1,-1.044067554E-3,-3.681148961E-2,1.698730189E-1
1.419493262E1,1.879846901E-1,1.702131331E-2,-1.739187725E-2,1.895532806E-1
1.420495663E1,2.007042170E-1,4.138044640E-2,6.857002620E-3,2.050403437E-1
1.421498062E1,2.009712607E-1,6.096790358E-2,2.504761517E-2,2.115039383E-1
1.422500462E1,1.833861470E-1,6.029438972E-2,2.661754936E-2,1.948701780E-1
1.423502863E1,1.525053680E-1,5.928599834E-2,2.438810654E-2,1.654312444E-1
1.424505262E1,1.164717376E-1,5.883352831E-2,2.430395037E-2,1.327318037E-1
1.425507662E1,8.125485480E-2,4.139965028E-2,3.810205311E-2,9.883344030E-2
1.426510062E1,4.681273177E-2,2.559352480E-2,6.164439768E-2,8.152602120E-2
1.427512363E1,-1.757632243E-3,3.557725996E-2,9.109869599E-2,9.781514765E-2
1.428514762E1,-3.825465590E-2,3.486592695E-2,1.184192672E-1,1.292368926E-1
1.429517162E1,-5.359303579E-2,1.359229535E-2,1.292565167E-1,1.405852449E-1
1.430519562E1,-4.968617857E-2,-1.410777494E-2,1.268357038E-1,1.369490468E-1
1.431521962E1,-2.542670816E-2,-4.645952955E-2,1.260984838E-1,1.367692692E-1
1.432524362E1,2.057220787E-2,-7.614818215E-2,1.273989081E-1,1.498407260E-1
1.433526762E1,9.639986604E-2,-1.119574681E-1,1.203097925E-1,1.905304569E-1
1.434529163E1,1.922454387E-1,-1.214415133E-1,1.058594808E-1,2.508238018E-1
1.435531562E1,2.954816222E-1,-9.653525054E-2,8.210259676E-2,3.215109330E-1
1.436533962E1,3.902539313E-1,-5.247058347E-2,6.296166033E-2,3.987674306E-1
1.437536363E1,4.333685338E-1,-8.978166152E-4,6.793712825E-2,4.386622227E-1
1.438538762E1,4.075033963E-1,2.230843715E-2,7.726218551E-2,4.153626484E-1
1.439541062E1,3.168075383E-1,1.685197093E-2,7.324369252E-2,3.256004357E-1
1.440543462E1,1.931167543E-1,-1.567854173E-2,6.343926489E-2,2.038735829E-1
1.441545863E1,6.205817312E-2,-5.244804174E-2,6.202891096E-2,1.022232837E-1
1.442548262E1,-5.233684555E-2,-8.110525459E-2,5.663707480E-2,1.119149944E-1
1.443550662E1,-1.465335786E-1,-9.225266427E-2,5.685812235E-2,1.822511723E-1
1.444553063E1,-2.136289924E-1,-8.319019526E-2,7.472127676E-2,2.411249141E-1
1.445555462E1,-2.515261173E-1,-5.722564459E-2,1.154721081E-1,2.826198327E-1
1.446557862E1,-2.632562518E-1,-3.453071788E-2,1.504964083E-1,3.051973026E-1
1.447560262E1,-2.567172050E-1,-2.070378885E-2,1.676782668E-1,3.073245376E-1
1.448562663E1,-2.417521030E-1,-1.848803833E-2,1.734916866E-1,2.981362980E-1
1.449565062E1,-2.256483585E-1,-1.962626353E-2,1.731177121E-1,2.850826444E-1
1.450567462E1,-1.975062042E-1,-1.543072052E-2,1.609470695E-1,2.552464829E-1
1.451569763E1,-1.589587629E-1,-3.963586874E-3,1.316729039E-1,2.064493932E-1
1.452572162E1,-1.164874658E-1,9.726126678E-3,1.055824608E-1,1.575169300E-1
1.453574562E1,-8.029054105E-2,1.199607551E-2,8.893871307E-2,1.204183188E-1
1.454576962E1,-6.495232880E-2,5.600760691E-3,7.609587908E-2,1.002035745E-1
1.455579363E1,-7.021362334E-2,-3.839209676E-3,8.177555352E-2,1.078514422E-1
1.456581762E1,-9.260708094E-2,-1.308890060E-2,1.080636159E-1,1.429165345E-1
1.457584162E1,-1.171475798E-1,-2.792830020E-2,1.158208773E-1,1.670868667E-1
1.458586563E1,-1.228981391E-1,-4.240125045E-2,1.150440276E-1,1.735999623E-1
1.459588962E1,-1.129146740E-1,-5.595604330E-2,1.042491198E-1,1.635502411E-1
1.460591362E1,-1.079606637E-1,-8.256048709E-2,9.371179342E-2,1.650867626E-1
1.461593762E1,-1.266982108E-1,-1.130997688E-1,8.463317901E-2,1.897544975E-1
1.462596063E1,-1.630823165E-1,-1.421399266E-1,8.271650225E-2,2.316066070E-1
1.463598462E1,-1.923914701E-1,-1.639227271E-1,6.515561789E-2,2.610179932E-1
1.464600862E1,-2.086082548E-1,-1.463349462E-1,4.534729570E-2,2.588198170E-1
1.465603263E1,-2.072159648E-1,-1.094352603E-1,2.875793353E-2,2.360964866E-1
1.466605662E1,-1.906790584E-1,-7.175925374E-2,1.115044206E-2,2.040397662E-1
1.467608062E1,-1.624783278E-1,-5.787561834E-2,-3.132950515E-4,1.724786721E-1
1.468610462E1,-1.404406726E-1,-7.040604949E-2,1.061179116E-2,1.574585801E-1
1.469612862E1,-1.331595480E-1,-6.753438711E-2,3.731413558E-2,1.538983541E-1
1.470615262E1,-1.325419545E-1,-5.430353433E-2,7.206013799E-2,1.603399733E-1
1.471617662E1,-1.340235174E-1,-1.893045753E-2,9.608999640E-2,1.659938337E-1
1.472620063E1,-1.235261410E-1,2.061934769E-2,8.801902086E-2,1.530725745E-1
1.473622362E1,-1.122934222E-1,6.475536525E-2,6.023015827E-2,1.429361465E-1
1.474624762E1,-9.854511917E-2,8.150558174E-2,3.926841915E-2,1.337770874E-1
1.475627162E1,-1.029371992E-1,6.737058610E-2,4.571167007E-2,1.312418364E-1
1.476629563E1,-1.213188693E-1,5.887563899E-2,6.090393662E-2,1.479658691E-1
1.477631962E1,-1.402347833E-1,8.148124069E-2,7.996129990E-2,1.808280855E-1
1.478634362E1,-1.342466623E-1,1.091482863E-1,8.549562097E-2,1.929896783E-1
1.479636763E1,-1.013997570E-1,1.284312755E-1,7.587276399E-2,1.803695638E-1
1.480639162E1,-5.706265196E-2,1.270152777E-1,6.133031100E-2,1.521526670E-1
1.481641562E1,-1.539194491E-2,1.128479242E-1,4.673836753E-2,1.231098736E-1
1.482643963E1,1.795509271E-2,1.002527699E-1,4.018938914E-2,1.094905942E-1
1.483646362E1,5.193546414E-2,7.548726350E-2,3.394534439E-2,9.771338594E-2
1.484648662E1,9.074437618E-2,4.549420998E-2,2.102661505E-2,1.036647649E-1
1.485651062E1,1.304057091E-1,2.322411723E-2,7.670009043E-3,1.326794545E-1
1.486653463E1,1.657959223E-1,3.761317953E-2,5.806740373E-4,1.700099300E-1
1.487655862E1,1.883698255E-1,5.831877887E-2,-9.343163110E-3,1.974121724E-1
1.488658262E1,1.880672872E-1,5.507025495E-2,-3.057228401E-2,1.983348231E-1
1.489660662E1,1.626861840E-1,5.912237614E-2,-6.311596185E-2,1.842440623E-1
1.490663062E1,1.305189282E-1,6.433418393E-2,-8.561062068E-2,1.688290739E-1
1.491665462E1,1.009413004E-1,5.055997893E-2,-9.554644674E-2,1.479005784E-1
1.492667862E1,8.577726036E-2,6.449949741E-2,-1.028957069E-1,1.486790169E-1
1.493670263E1,7.275733352E-2,1.040844545E-1,-1.176621318E-1,1.731230213E-1
1.494672662E1,4.803494364E-2,1.527768970E-1,-1.277230233E-1,2.048445917E-1
1.495674962E1,6.889911368E-3,1.738119870E-1,-1.256306320E-1,2.145719773E-1
1.496677362E1,-4.321986064E-2,1.775300205E-1,-1.076803878E-1,2.120847247E-1
1.497679762E1,-7.838853449E-2,1.777375787E-1,-7.020071894E-2,2.065515678E-1
1.498682162E1,-6.842830777E-2,1.909125000E-1,-3.490903601E-2,2.057878927E-1
1.499684562E1,-1.178869512E-2,2.014218867E-1,-2.862584032E-2,2.037871156E-1
1.500686963E1,8.981436491E-2,1.806854457E-1,-4.652893916E-2,2.070719503E-1
1.501689362E1,2.052566111E-1,1.171979308E-1,-7.348268479E-2,2.475183556E-1
1.502691762E1,2.944874465E-1,5.979589745E-2,-9.895661473E-2,3.163713279E-1
1.503694163E1,3.405020833E-1,2.257562801E-2,-1.091633365E-1,3.582847495E-1
1.504696562E1,3.399308324E-1,-4.451729823E-3,-1.016881093E-1,3.548425852E-1
1.505698962E1,3.084064424E-1,-2.534220926E-2,-7.483514398E-2,3.183662357E-1
1.506701262E1,2.549251318E-1,-2.354883589E-2,-4.333820194E-2,2.596527879E-1
1.507703663E1,1.952622831E-1,-1.204183232E-2,-2.469463833E-2,1.971856741E-1
1.508706062E1,1.370913833E-1,1.018043375E-3,-1.825697906E-2,1.383054630E-1
1.509708883E1,6.864367425E-2,1.267772168E-2,1.264325529E-2,7.094033089E-2
1.510711283E1,-1.557906158E-2,2.174951509E-2,7.165917009E-2,7.649042570E-2
1.511713683E1,-1.038120463E-1,2.206234075E-2,1.054308787E-1,1.495973196E-1
1.512716083E1,-1.829521358E-1,-2.160173142E-3,1.191892996E-1,2.183626330E-1
1.513718483E1,-2.305303812E-1,-3.079863824E-2,1.155232415E-1,2.596891066E-1
1.514720883E1,-2.428935766E-1,-4.456078634E-2,9.638044238E-2,2.650889340E-1
1.515723283E1,-2.144131660E-1,-5.500883237E-2,6.130804494E-2,2.296903433E-1
1.516725683E1,-1.672797501E-1,-5.615452677E-2,2.195131592E-2,1.778136832E-1
1.517728083E1,-1.063797623E-1,-7.623052597E-2,-1.677120849E-2,1.319432467E-1
1.518730383E1,-5.172637105E-2,-8.811675012E-2,-5.648000538E-2,1.167483196E-1
1.519732783E1,-8.446345106E-3,-7.917781174E-2,-9.234606475E-2,1.219354841E-1
1.520735183E1,2.413396724E-2,-5.700832978E-2,-1.172167957E-1,1.325600816E-1
1.521737583E1,4.223855585E-2,-2.794341929E-2,-1.226069331E-1,1.326551557E-1
1.522739983E1,4.031921551E-2,5.307477899E-3,-1.272845119E-1,1.336231845E-1
1.523742383E1,2.120492794E-2,1.163281966E-2,-1.316280216E-1,1.338316388E-1
1.524744783E1,-4.656762816E-3,-1.020004041E-2,-1.287544668E-1,1.292417850E-1
1.525747183E1,-3.970028833E-2,-4.392667487E-2,-1.281987727E-1,1.412111574E-1
1.526749583E1,-7.962986082E-2,-6.911671162E-2,-1.221547276E-1,1.613685596E-1
1.527751983E1,-1.193321720E-1,-7.660023868E-2,-1.179692447E-1,1.844573298E-1
1.528754383E1,-1.460846961E-1,-8.455323428E-2,-1.068092734E-1,1.997453597E-1
1.529756783E1,-1.638069451E-1,-7.326493412E-2,-8.290112019E-2,1.976690708E-1
1.530759083E1,-1.815060526E-1,-7.026301324E-2,-4.743686318E-2,2.003287153E-1
1.531761483E1,-2.011681497E-1,-8.449457586E-2,-2.138480917E-2,2.192379253E-1
1.532763883E1,-2.184550017E-1,-9.253279120E-2,-1.805612445E-2,2.379305126E-1
1.533766283E1,-2.237810344E-1,-8.149076998E-2,-3.060094267E-2,2.401147947E-1
1.534768683E1,-2.052741945E-1,-7.682384551E-2,-3.993878514E-2,2.227880264E-1
1.535771083E1,-1.797057092E-1,-6.499712169E-2,-4.159601778E-2,1.955735065E-1
1.536773483E1,-1.434899122E-1,-1.105319895E-2,-3.645585105E-2,1.484606250E-1
1.537775883E1,-9.560210258E-2,4.762007296E-2,-2.542418800E-2,1.097899025E-1
1.538778283E1,-4.605478793E-2,7.938678563E-2,-1.512840763E-2,9.301706263E-2
1.539780683E1,-8.470222238E-4,8.679187298E-2,-1.020373963E-2,8.739372383E-2
1.540783083E1,3.128428012E-2,7.366914302E-2,-1.265730988E-2,8.103120578E-2
1.541785383E1,4.259740561E-2,5.020292476E-2,-1.433254406E-2,6.738170700E-2
1.542787783E1,3.914328665E-2,2.711092122E-2,-1.672725938E-2,5.046781296E-2
1.543790183E1,3.170617670E-2,-1.890344778E-3,-1.932943054E-2,3.718174188E-2
1.544792583E1,3.231976554E-2,-2.602790669E-2,-1.409951597E-2,4.382710944E-2
1.545794983E1,5.621793866E-2,-3.170531988E-2,-1.012948714E-2,6.533215476E-2
1.546797383E1,1.039372534E-1,-2.428814769E-2,-1.296335645E-2,1.075216972E-1
1.547799783E1,1.615960449E-1,-3.485531313E-3,-1.253395900E-2,1.621188786E-1
1.548802183E1,2.182760984E-1,-1.065125689E-4,-1.543281041E-2,2.188210184E-1
1.549804583E1,2.504279912E-1,8.716925047E-3,-1.130992547E-3,2.505822074E-1
1.550806983E1,2.469523102E-1,4.341951013E-2,2.215728536E-2,2.517173865E-1
1.551809383E1,2.273483425E-1,7.494875044E-2,2.939070202E-2,2.411812543E-1
1.552811783E1,2.006855607E-1,7.406670600E-2,1.357978024E-2,2.143478053E-1
1.553814083E1,1.688260436E-1,5.209952965E-2,-1.562958583E-3,1.766890965E-1
1.554816483E1,1.326137036E-1,2.147211134E-2,1.183567196E-2,1.348611474E-1
1.555818883E1,8.934902400E-2,-5.458882079E-4,4.097582772E-2,9.829834455E-2
1.556821283E1,5.038883910E-2,5.849959329E-3,8.113177121E-2,9.568501152E-2
1.557823683E1,2.493186481E-2,3.232283890E-2,1.068931594E-1,1.144225124E-1
1.558826083E1,1.863961294E-2,8.098971099E-2,1.339894980E-1,1.576703968E-1
1.559828483E1,2.741013467E-2,1.016928032E-1,1.578828394E-1,1.897886527E-1
1.560830883E1,3.925001249E-2,8.921589702E-2,1.729201078E-1,1.984978676E-1
1.561833283E1,4.681582004E-2,7.157556713E-2,1.883896738E-1,2.068947849E-1
1.562835683E1,5.823385343E-2,5.002899840E-2,2.031779289E-1,2.171988793E-1
1.563838083E1,8.630117029E-2,3.892947361E-2,2.051976770E-1,2.259855804E-1
1.564840383E1,1.378727555E-1,3.511822596E-2,1.868860424E-1,2.348799254E-1
1.565842783E1,2.070598006E-1,3.327391669E-2,1.695876420E-1,2.697051777E-1
1.566845183E1,2.730172575E-1,4.336995631E-2,1.694158614E-1,3.242238579E-1
1.567847583E1,3.150783181E-1,6.220702454E-2,1.752752066E-1,3.658762885E-1
1.568849983E1,3.137345016E-1,5.705966428E-2,1.749678701E-1,3.637291552E-1
1.569852383E1,2.614912391E-1,3.899646178E-2,1.801076233E-1,3.199017789E-1
1.570854783E1,1.815103590E-1,3.429811448E-2,1.834453642E-1,2.603355004E-1
1.571857183E1,1.137034819E-1,1.833826490E-2,1.786909103E-1,2.125916630E-1
1.572859583E1,6.534127146E-2,-2.279132791E-2,1.667101532E-1,1.805026359E-1
1.573861983E1,1.485920139E-2,-7.951830328E-2,1.590904891E-1,1.784761613E-1
1.574864383E1,-6.339832395E-2,-1.253350675E-1,1.639866978E-1,2.159163349E-1
1.575866783E1,-1.621860564E-1,-1.476898938E-1,1.842258275E-1,2.864537958E-1
1.576869083E1,-2.499262989E-1,-1.537579000E-1,1.986545771E-1,3.543561594E-1
1.577871483E1,-2.998505235E-1,-1.421459317E-1,2.130635381E-1,3.943499380E-1
1.578873883E1,-3.140467703E-1,-1.129275858E-1,2.258437872E-1,4.029682740E-1
1.579876283E1,-2.985680997E-1,-7.842154056E-2,2.271347791E-1,3.832532532E-1
1.580878683E1,-2.603735924E-1,-6.348706037E-2,2.280591577E-1,3.519033871E-1
1.581881083E1,-2.203368396E-1,-4.764135182E-2,2.315702736E-1,3.231761329E-1
1.582883483E1,-1.753762811E-1,-2.691769972E-2,2.099107802E-1,2.748525754E-1
1.583885883E1,-1.300681978E-1,-2.388531156E-2,1.768584996E-1,2.208329076E-1
1.584888283E1,-9.521566331E-2,-3.477790579E-2,1.481189877E-1,1.794847063E-1
1.585890683E1,-7.101153582E-2,-3.543832898E-2,1.270495057E-1,1.498001678E-1
1.586893083E1,-4.879411682E-2,-9.921517223E-3,1.090039313E-1,1.198380548E-1
1.587895483E1,-2.156939171E-2,2.055002004E-2,8.143866807E-2,8.671677254E-2
1.588897783E1,-5.280434154E-3,2.788303420E-2,6.127933413E-2,6.753149911E-2
1.589900183E1,-1.824099384E-2,1.746201515E-2,4.575885832E-2,5.226403108E-2
