"Time (s)","Gyroscope x (rad/s)","Gyroscope y (rad/s)","Gyroscope z (rad/s)","Absolute (rad/s)"
-1.050541643E-3,9.593108296E-2,6.961283088E-2,3.412143141E-2,1.233409542E-1
8.928458323E-3,1.609083824E-2,8.695631474E-2,1.811834238E-2,9.026954126E-2
1.890745841E-2,-4.084275290E-2,4.295770079E-2,-1.084353402E-2,6.025841644E-2
2.888645837E-2,-6.865812093E-2,-2.810663916E-2,-4.467584193E-2,8.660168351E-2
3.886545834E-2,-7.560843229E-2,-8.700111508E-2,-6.416272372E-2,1.319192335E-1
4.884445842E-2,-6.889380515E-2,-1.070122346E-1,-6.884657592E-2,1.446990869E-1
5.882345838E-2,-5.002264678E-2,-7.869909704E-2,-6.929558516E-2,1.161795644E-1
6.880245835E-2,-2.078780346E-2,-1.802112162E-2,-6.293912232E-2,6.868934936E-2
7.878145843E-2,8.311759681E-3,3.671243414E-2,-5.330486968E-2,6.525563042E-2
8.876045840E-2,2.634216286E-2,7.161083817E-2,-4.127519205E-2,8.675058021E-2
9.874045837E-2,3.485175967E-2,8.407309651E-2,-2.247114480E-2,9.374370943E-2
1.087194583E-1,3.748533875E-2,6.713087857E-2,-6.640485371E-4,7.689048341E-2
1.186984584E-1,3.041118383E-2,4.504740611E-2,1.355430204E-2,5.601631908E-2
1.286774584E-1,1.853351668E-2,2.628426626E-2,1.730642840E-2,3.652213517E-2
1.386564584E-1,4.855521955E-3,1.739330217E-2,7.063110359E-3,1.939047658E-2
1.486354584E-1,-1.047897991E-2,1.831156388E-2,-2.893577330E-3,2.129542630E-2
1.586144584E-1,-1.838910021E-2,1.808785647E-2,-1.848052815E-2,3.173104913E-2
1.685934584E-1,-2.204747684E-2,1.812883094E-2,-3.358463570E-2,4.407577001E-2
1.785724583E-1,-2.176917531E-2,2.382027172E-2,-4.193950444E-2,5.291714629E-2
1.885514584E-1,-2.091855742E-2,1.962420903E-2,-3.849207237E-2,4.800349217E-2
1.985304584E-1,-1.830945909E-2,1.057079248E-2,-2.465694956E-2,3.247988774E-2
2.085094583E-1,-1.360152010E-2,-4.016226158E-4,-1.497804187E-2,2.023621477E-2
2.184884584E-1,-6.723107770E-3,-2.025016211E-2,-1.449600980E-2,2.579541710E-2
2.284684584E-1,-1.193329226E-3,-3.839264065E-2,-1.873736829E-2,4.273766326E-2
2.384474584E-1,-6.377438549E-3,-4.407342896E-2,-2.253849804E-2,4.991114862E-2
2.484264583E-1,-1.360525563E-2,-3.550723195E-2,-2.196845971E-2,4.391445916E-2
2.584054584E-1,-1.632327773E-2,-2.245534770E-2,-1.953512989E-2,3.394574106E-2
2.683844584E-1,-1.527292840E-2,-1.474670041E-2,-1.570136473E-2,2.640568820E-2
2.783634583E-1,-7.088502403E-3,-1.447159518E-2,-1.504196506E-2,2.204392538E-2
2.883424584E-1,-7.691793144E-5,-1.354230568E-2,-1.346447505E-2,1.909691200E-2
2.983214584E-1,-1.390122576E-3,-1.091589779E-2,-1.327192876E-2,1.724045702E-2
3.083004584E-1,-1.014234498E-2,-2.283094916E-3,-1.224167738E-2,1.606045918E-2
3.182794583E-1,-2.098434046E-2,9.287275374E-3,-9.609942324E-3,2.487864586E-2
3.282582083E-1,-3.373583406E-2,5.543697625E-3,-4.478012212E-3,3.448030853E-2
3.382372084E-1,-4.804260284E-2,-5.483653396E-3,-1.288344269E-3,4.837170633E-2
3.482172084E-1,-6.310542673E-2,-4.036941752E-2,-1.530263806E-3,7.492880928E-2
3.581962084E-1,-8.125273883E-2,-7.569891214E-2,-1.374964602E-2,1.118989975E-1
3.681752083E-1,-8.961825073E-2,-8.791773766E-2,-2.256556042E-2,1.275545529E-1
3.781542084E-1,-8.967604488E-2,-9.254098684E-2,-3.331567720E-2,1.330998182E-1
3.881332084E-1,-7.916483283E-2,-7.918176055E-2,-3.995273635E-2,1.188824760E-1
3.981122083E-1,-5.961882696E-2,-5.188836157E-2,-4.237115011E-2,8.967787328E-2
4.080912084E-1,-3.451800346E-2,-1.714670099E-2,-3.793557361E-2,5.407966034E-2
4.180702084E-1,-5.394208711E-3,1.297285222E-2,-3.281537816E-2,3.569651840E-2
4.280492084E-1,1.777715795E-2,2.959384397E-2,-1.941722073E-2,3.960872891E-2
4.380282083E-1,3.202347085E-2,3.750103340E-2,-2.784980694E-3,4.939216849E-2
4.480072084E-1,4.060178995E-2,3.636542335E-2,8.909766562E-3,5.522982259E-2
4.579862084E-1,4.238158092E-2,3.006997518E-2,1.300730649E-2,5.356857130E-2
4.679652083E-1,3.683528304E-2,1.826971024E-2,8.747107349E-3,4.203727246E-2
4.779452084E-1,3.112067096E-2,-1.989220735E-3,7.432432612E-4,3.119303721E-2
4.879242084E-1,2.099427395E-2,-1.745017804E-2,-9.684683755E-3,2.896655574E-2
4.979032084E-1,1.172567438E-2,-2.901122719E-2,-1.806751639E-2,3.613278139E-2
5.078822083E-1,5.688921083E-4,-3.957825527E-2,-2.076435089E-2,4.469810059E-2
5.178612084E-1,-4.933731630E-3,-3.569883108E-2,-1.767908037E-2,4.014097820E-2
5.278402084E-1,5.936566740E-4,-2.721194364E-2,-1.274681929E-2,3.005534407E-2
5.378192083E-1,1.550815813E-2,-2.057374828E-2,-6.982939783E-3,2.669351110E-2
5.477982084E-1,3.151454777E-2,-1.836806536E-2,-1.792205963E-3,3.652074134E-2
5.577772084E-1,4.237385467E-2,-1.476773899E-2,3.632120322E-3,4.502023958E-2
5.677562084E-1,4.665622115E-2,-8.030537516E-3,1.323607191E-2,4.915776749E-2
5.777352083E-1,4.805731028E-2,-7.200164255E-3,1.303020958E-2,5.031037466E-2
5.877142084E-1,4.450969771E-2,-1.390830893E-2,9.831177071E-3,4.765717459E-2
5.976932084E-1,3.081625700E-2,-2.005222067E-2,-7.098800852E-4,3.677277769E-2
6.076732083E-1,1.301728468E-2,-2.253322303E-2,-8.570466191E-3,2.739796948E-2
6.176522084E-1,2.500195289E-3,-2.780628204E-2,-1.146319229E-2,3.018020999E-2
6.276312084E-1,-2.348880982E-3,-3.680927679E-2,-1.013811491E-2,3.825207803E-2
6.376102084E-1,-2.817597473E-3,-3.500285372E-2,-8.207855746E-3,3.606255011E-2
6.475892083E-1,-6.588380784E-3,-2.211711928E-2,1.005632803E-3,2.309945939E-2
6.575682084E-1,-7.942065597E-3,-6.706739776E-3,1.204576716E-2,1.591091672E-2
6.675472084E-1,-4.504442681E-3,1.511084847E-2,2.076420188E-2,2.607258762E-2
6.775262083E-1,1.793667092E-3,2.215943672E-2,2.372989804E-2,3.251716375E-2
6.875052084E-1,8.434786461E-3,2.397310175E-2,2.131411061E-2,3.316845702E-2
6.974842084E-1,1.748181134E-2,2.811538242E-2,2.022887208E-2,3.879814070E-2
7.074632084E-1,2.391361445E-2,2.291243896E-2,1.174422074E-2,3.513925918E-2
7.174422084E-1,2.946390957E-2,1.045763493E-2,6.054644007E-3,3.184560895E-2
7.274222084E-1,2.518260293E-2,-1.378339250E-3,1.910343766E-3,2.529254283E-2
7.374012084E-1,1.310889609E-2,-4.048157949E-3,1.906881691E-3,1.385160414E-2
7.473802083E-1,-1.907605678E-3,-7.256340235E-3,1.486514346E-3,7.648735708E-3
7.573592084E-1,-1.341752149E-2,6.360668223E-3,6.825885735E-3,1.634260381E-2
7.673382084E-1,-1.971402019E-2,1.372940373E-2,1.598894782E-2,2.885802438E-2
7.773172084E-1,-1.007683948E-2,1.308385376E-2,2.335605025E-2,2.860480740E-2
7.872962084E-1,1.491130795E-3,1.593169942E-2,3.210547939E-2,3.587205492E-2
7.972752084E-1,1.257760450E-2,2.080741338E-2,3.165860102E-2,3.991756011E-2
8.072542084E-1,1.971806586E-2,3.065004013E-2,2.495000325E-2,4.416706628E-2
8.172332083E-1,2.118626609E-2,3.796973825E-2,2.006576583E-2,4.788730366E-2
8.272122084E-1,1.889248565E-2,3.601983562E-2,1.171323378E-2,4.232675770E-2
8.371912084E-1,1.117437705E-2,2.226407453E-2,8.103052154E-3,2.619570903E-2
8.471702083E-1,5.543389358E-3,6.922404282E-3,4.225489683E-3,9.823625078E-3
8.571502084E-1,2.795007313E-3,-3.034888767E-3,1.304002246E-3,4.327012545E-3
8.671292084E-1,1.284728642E-3,-1.840399206E-2,-1.416949322E-3,1.850311316E-2
8.771082084E-1,3.172909841E-3,-2.138193697E-2,4.938151687E-3,2.217295486E-2
8.870872083E-1,2.123100217E-3,-1.291785575E-2,1.092328876E-2,1.704983253E-2
8.970662084E-1,2.364915097E-3,-2.221003175E-3,1.113900449E-2,1.160185759E-2
9.070452084E-1,2.767229453E-4,1.212523202E-3,1.431200653E-2,1.436594303E-2
9.170242083E-1,-4.316963255E-3,4.158245400E-3,1.756399311E-2,1.855858374E-2
9.270032084E-1,-5.930027459E-3,1.727880561E-3,2.209235355E-2,2.293954843E-2
9.369822084E-1,-9.161774069E-3,-1.927574165E-3,1.746830717E-2,1.981906662E-2
9.469612084E-1,-1.122226473E-2,-5.796424579E-3,1.269228011E-2,1.790619273E-2
9.569402083E-1,-1.001798268E-2,-1.703150198E-2,5.812802818E-3,2.059661898E-2
9.669192084E-1,-1.534138341E-2,-1.916951127E-2,1.337412279E-3,2.458895847E-2
9.768982084E-1,-2.009832114E-2,-1.492603123E-2,2.360332292E-3,2.514557793E-2
9.868782084E-1,-2.617804892E-2,-5.197820719E-3,4.165723920E-3,2.701223503E-2
9.968572084E-1,-2.835358493E-2,8.354739286E-3,8.304808289E-3,3.070337583E-2
1.006836208E0,-2.043706179E-2,2.060237527E-2,1.385265309E-2,3.215629579E-2
1.016815208E0,-5.296726245E-3,2.168574743E-2,2.431594767E-2,3.300897244E-2
1.026794208E0,1.369213127E-2,1.919305697E-2,2.716474794E-2,3.596903425E-2
1.036773208E0,2.852300927E-2,1.151915919E-2,2.337799966E-2,3.863656241E-2
1.046752208E0,3.392124549E-2,6.147320382E-3,1.623588428E-2,3.810570012E-2
1.056731208E0,2.949720249E-2,2.107038861E-3,4.594406579E-3,2.992713048E-2
1.066710208E0,1.682960242E-2,-8.792503737E-3,-3.963609692E-3,1.939726376E-2
1.076689208E0,2.006447408E-3,-1.099919900E-2,-9.724292904E-3,1.481789737E-2
1.086668208E0,-8.905583061E-3,-1.535804756E-2,-9.526919574E-3,2.014798330E-2
1.096647208E0,-1.687482744E-2,-1.882974431E-2,-8.028890938E-3,2.652889296E-2
1.106626208E0,-1.848843880E-2,-1.595180295E-2,-4.247322213E-3,2.478552264E-2
1.116606208E0,-1.363216434E-2,-4.762266763E-3,3.718192456E-3,1.491107120E-2
1.126585208E0,-2.792835003E-3,4.317971412E-3,6.861873437E-3,8.574970060E-3
1.136564208E0,1.053122617E-2,1.318416744E-2,5.279955920E-3,1.768069372E-2
1.146543208E0,1.950025000E-2,1.450126059E-2,4.336924758E-3,2.468512153E-2
1.156522208E0,2.575841174E-2,1.280322857E-2,2.524110954E-3,2.887541468E-2
1.166501208E0,2.397458628E-2,1.169316750E-2,-2.454999369E-3,2.678689932E-2
1.176480208E0,2.073911205E-2,2.008848824E-3,-5.969040561E-3,2.167430939E-2
1.186459208E0,1.062840689E-2,-2.791799139E-3,-1.005718578E-2,1.489644794E-2
1.196438208E0,-1.001085155E-3,-5.926073063E-3,-9.851856157E-3,1.154034589E-2
1.206417208E0,-1.471127756E-2,-4.793361761E-3,-2.275577979E-3,1.563893409E-2
1.216396208E0,-1.753396168E-2,-8.153738454E-3,2.971381880E-3,1.956405820E-2
1.226375208E0,-9.522369131E-3,-1.563174464E-2,9.381172247E-3,2.056777448E-2
1.236354208E0,2.281826455E-3,-1.573640667E-2,6.847174373E-3,1.731256837E-2
1.246333208E0,1.768474281E-2,-1.322027482E-2,2.157932147E-3,2.218518573E-2
1.256313208E0,3.336064145E-2,-8.813276887E-3,-7.923996076E-3,3.540333263E-2
1.266292208E0,4.211820289E-2,-3.083756194E-3,-1.751011610E-2,4.571713829E-2
1.276271208E0,3.456574306E-2,4.460979253E-3,-2.203535847E-2,4.123406301E-2
1.286250208E0,2.012286335E-2,1.707976311E-2,-2.261816896E-2,3.475959587E-2
1.296229208E0,1.573946676E-3,2.255761996E-2,-1.721541397E-2,2.841995786E-2
1.306208208E0,-1.243639551E-2,1.605355740E-2,-5.711047444E-3,2.109494492E-2
1.316187208E0,-1.677495241E-2,1.011603884E-2,4.896056838E-3,2.019169737E-2
1.326166583E0,-1.874863915E-2,3.502893960E-3,1.390424091E-2,2.360317037E-2
1.336145583E0,-1.348729804E-2,-2.425302751E-3,1.906198449E-2,2.347655330E-2
1.346124583E0,-4.410175141E-3,-2.884153742E-3,2.454860508E-2,2.510780753E-2
1.356103583E0,9.985009208E-3,-3.829309717E-3,2.324099280E-2,2.558334943E-2
1.366082583E0,2.493280545E-2,-5.759823136E-3,2.397733182E-2,3.506754612E-2
1.376061583E0,3.774953261E-2,-7.149460725E-3,1.857084781E-2,4.267339205E-2
1.386040583E0,4.240766540E-2,-5.543714389E-3,1.489902660E-2,4.528933481E-2
1.396020583E0,4.141616821E-2,-7.613522932E-3,1.245317981E-2,4.391294124E-2
1.405999583E0,3.566292673E-2,-1.379708573E-2,1.357651688E-2,4.057740416E-2
1.415978583E0,2.609099634E-2,-1.449749805E-2,1.289314963E-2,3.251385623E-2
1.425957583E0,2.103498206E-2,-1.297444757E-2,1.314004883E-2,2.799049201E-2
1.435936583E0,1.607990265E-2,-1.647464186E-2,1.331821457E-2,2.659608868E-2
1.445915583E0,1.147957332E-2,-8.412482217E-3,1.605379954E-2,2.145401921E-2
1.455894583E0,7.231564727E-3,-2.844078932E-3,2.323927358E-2,2.450404354E-2
1.465873583E0,3.442168934E-3,-5.581963807E-3,3.177401051E-2,3.244371419E-2
1.475852583E0,6.789229810E-3,-1.155570056E-2,3.563719243E-2,3.807410329E-2
1.485831583E0,7.892553695E-3,-1.393117197E-2,3.217775002E-2,3.594130705E-2
1.495810583E0,6.097316742E-3,-9.976111352E-3,2.739684470E-2,2.978736592E-2
1.505789583E0,3.312457120E-3,8.352383040E-3,1.921870001E-2,2.121539782E-2
1.515768583E0,3.355334047E-3,2.350017615E-2,1.336161047E-2,2.724057965E-2
1.525747583E0,7.318653632E-3,3.623628989E-2,8.338802494E-3,3.789679436E-2
1.535727583E0,1.615155861E-2,3.361041099E-2,2.971733920E-3,3.740807098E-2
1.545706583E0,1.914601028E-2,2.498940378E-2,-1.021831762E-3,3.149736737E-2
1.555685583E0,1.420558058E-2,1.662494801E-2,-1.566448249E-3,2.192353019E-2
1.565664583E0,6.442203186E-3,1.232055668E-2,-6.762387347E-4,1.391960479E-2
1.575643583E0,-1.903877594E-3,3.349698381E-3,1.458817394E-3,4.119875888E-3
1.585622583E0,-5.453587044E-3,2.226626966E-3,1.506178873E-3,6.080136026E-3
1.595601583E0,-5.825630855E-3,5.135331303E-3,5.133670755E-3,9.309359691E-3
1.605580583E0,-2.755570924E-3,9.805230424E-3,1.374409068E-3,1.027738853E-2
1.615559583E0,5.829676520E-4,2.482252941E-2,6.867808406E-4,2.483887045E-2
1.625538583E0,1.008939091E-2,2.828924172E-2,-4.965330474E-3,3.044226523E-2
1.635517583E0,2.229519188E-2,2.436986752E-2,-1.112788543E-2,3.485392170E-2
1.645496583E0,3.407171369E-2,1.665968075E-2,-2.112806216E-2,4.341453267E-2
1.655475583E0,4.337653145E-2,8.038761094E-3,-3.038307838E-2,5.356562902E-2
1.665455583E0,4.074399173E-2,7.548791822E-3,-3.296238557E-2,5.294880530E-2
1.675434583E0,3.693167493E-2,1.359256916E-2,-3.593314067E-2,5.329068537E-2
1.685413583E0,2.745160088E-2,2.000620216E-2,-3.714608401E-2,5.033557463E-2
1.695392583E0,1.700881310E-2,2.204378694E-2,-3.222083300E-2,4.258415604E-2
1.705371583E0,6.421705242E-3,1.422074623E-2,-2.707434073E-2,3.124880554E-2
1.715350583E0,-7.993718609E-3,5.446961150E-3,-1.535243727E-2,1.814569517E-2
1.725329583E0,-2.808966860E-2,6.073892582E-4,8.633695543E-4,2.810949681E-2
1.735308583E0,-4.353893548E-2,2.912720665E-4,1.508651301E-2,4.607956833E-2
1.745287583E0,-4.682741687E-2,-1.781389583E-4,2.512363158E-2,5.314165567E-2
1.755266583E0,-4.057085142E-2,-5.783027969E-3,3.149284795E-2,5.168400980E-2
1.765245583E0,-2.845638804E-2,-1.425464824E-2,3.349135444E-2,4.620207613E-2
1.775224583E0,-1.789162681E-2,-1.791329868E-2,3.590710834E-2,4.393537309E-2
1.785203583E0,-8.452063426E-3,-2.059952356E-2,3.630651161E-2,4.259038075E-2
1.795182583E0,-3.148378339E-3,-1.899603568E-2,3.575603291E-2,4.061102741E-2
1.805162583E0,-5.188629963E-3,-1.011307258E-2,3.429291770E-2,3.612755627E-2
1.815141583E0,-1.004836615E-2,-2.738779411E-3,3.116237372E-2,3.285672094E-2
1.825120583E0,-1.741759852E-2,-1.135353930E-3,2.976720408E-2,3.450721961E-2
1.835099583E0,-2.193671651E-2,-3.041644581E-3,2.801670693E-2,3.571284083E-2
1.845078583E0,-2.609069645E-2,-8.000265807E-3,2.784042805E-2,3.898484486E-2
1.855057583E0,-3.229080141E-2,-1.366534270E-2,2.910196595E-2,4.556711390E-2
1.865036583E0,-4.767881706E-2,-1.088855043E-2,3.116336465E-2,5.799125299E-2
1.875015583E0,-6.112938002E-2,-3.902812954E-3,2.744292840E-2,6.712039459E-2
1.884994583E0,-6.862271577E-2,-1.428232063E-4,2.345549688E-2,7.252074084E-2
1.894973583E0,-7.122222334E-2,-5.300301127E-3,2.269063704E-2,7.493706225E-2
1.904952583E0,-6.090967357E-2,-1.816258207E-2,2.754773572E-2,6.927297789E-2
1.914931583E0,-4.196474329E-2,-3.710777685E-2,2.615996264E-2,6.182532189E-2
1.924910583E0,-2.251807228E-2,-4.354056716E-2,1.930170506E-2,5.268206892E-2
1.934889583E0,-7.971352898E-3,-4.049311206E-2,7.700176444E-3,4.198246430E-2
1.944869583E0,1.146765659E-3,-2.987625077E-2,-2.567239339E-3,3.000826802E-2
1.954848583E0,4.229184706E-4,-1.720466465E-2,-1.191813033E-2,2.093373297E-2
1.964827583E0,-3.883165307E-3,-1.122085378E-2,-2.014640160E-2,2.338512411E-2
1.974806583E0,-4.721262027E-3,-3.148546908E-3,-2.906426229E-2,2.961308841E-2
1.984785583E0,-2.529453952E-3,-4.280257970E-3,-3.842388466E-2,3.874420806E-2
1.994764583E0,-2.295095939E-3,-1.090194192E-2,-4.434941709E-2,4.572735067E-2
2.004743583E0,-7.218779530E-3,-1.029195450E-2,-4.342133924E-2,4.520451092E-2
2.014722583E0,-1.079753600E-2,-3.900634125E-3,-3.491733596E-2,3.675625227E-2
2.024701583E0,-7.545526139E-3,2.429489745E-3,-2.331699245E-2,2.462761706E-2
2.034680583E0,-1.648410689E-4,6.194134243E-3,-1.697893441E-2,1.807425476E-2
2.044659583E0,3.045068122E-3,9.984014556E-3,-9.425884113E-3,1.406414867E-2
2.054638583E0,1.346503966E-3,1.770052314E-2,1.409896940E-4,1.775222438E-2
2.064617583E0,-2.327860799E-3,1.997919008E-2,2.264800249E-3,2.024144986E-2
2.074596583E0,-4.678100348E-3,1.453621965E-2,4.298390355E-3,1.586387293E-2
2.084576583E0,-9.356480092E-3,8.512137458E-3,6.611636374E-3,1.427283922E-2
2.094555583E0,-1.110990532E-2,2.398052718E-3,5.785790272E-3,1.275366701E-2
2.104534583E0,-9.374323301E-3,-5.826587323E-3,2.132465597E-3,1.124163986E-2
2.114513583E0,-5.680784583E-3,-1.366799884E-2,1.321533229E-3,1.486041573E-2
2.124492583E0,-6.103144959E-3,-2.542021684E-2,2.297748113E-3,2.624338867E-2
2.134471583E0,-1.076713856E-2,-1.977191865E-2,4.100175574E-3,2.288386942E-2
2.144450583E0,-2.269811183E-2,-5.935499445E-3,1.173553430E-2,2.623275052E-2
2.154429583E0,-3.288949654E-2,1.523423474E-2,2.018494532E-2,4.148774407E-2
2.164408583E0,-4.105313495E-2,3.278037906E-2,2.950951643E-2,6.025549519E-2
2.174387583E0,-4.227180034E-2,4.480162263E-2,3.718687594E-2,7.195105445E-2
2.184366583E0,-3.704695031E-2,3.908180073E-2,4.183985293E-2,6.819411242E-2
2.194345583E0,-3.356300294E-2,2.740010992E-2,4.082172737E-2,5.952860334E-2
2.204324583E0,-3.194968030E-2,2.065327391E-2,3.290712088E-2,5.030127632E-2
2.214303583E0,-3.176858276E-2,1.678530127E-2,2.483960614E-2,4.368060465E-2
2.224282583E0,-2.867236920E-2,5.406405311E-3,1.218393445E-2,3.161933321E-2
2.234262583E0,-2.687260509E-2,-9.745915420E-3,2.064721659E-3,2.865977751E-2
2.244241583E0,-2.145972475E-2,-1.809956878E-2,-1.367732184E-3,2.810666946E-2
2.254220583E0,-1.232667919E-2,-1.381001435E-2,-6.931075826E-3,1.976621685E-2
2.264199583E0,-5.112450570E-3,3.222208237E-3,-1.084294170E-2,1.241326555E-2
2.274178583E0,2.704459708E-3,2.025019377E-2,-1.062908955E-2,2.302958955E-2
2.284157583E0,9.350634180E-3,2.916010655E-2,-1.188238431E-2,3.284717995E-2
2.294136583E0,1.138582174E-2,2.559173666E-2,-1.184270252E-2,3.041091128E-2
2.304115583E0,1.170487143E-2,1.851612329E-2,-1.156694442E-2,2.477185985E-2
2.314094583E0,1.096291468E-2,1.226967853E-2,-1.560456306E-2,2.267670385E-2
2.324077375E0,6.078408565E-3,7.589300629E-3,-2.085111104E-2,2.300681130E-2
2.334056375E0,2.009364776E-3,6.274498068E-3,-2.718703821E-2,2.797395073E-2
2.344035375E0,-4.784633406E-3,1.845574472E-3,-3.051827662E-2,3.094614790E-2
2.354014375E0,-1.041508839E-2,-1.225320064E-2,-2.988124825E-2,3.393381778E-2
2.363993375E0,-1.284442469E-2,-3.699875996E-2,-2.773713693E-2,4.799204360E-2
2.373973375E0,-1.593688689E-2,-4.915795475E-2,-2.249443904E-2,5.636034658E-2
2.383952375E0,-1.437466498E-2,-4.732906446E-2,-1.485263184E-2,5.164563881E-2
2.393931375E0,-3.679941874E-3,-2.809891105E-2,-6.033574231E-3,2.897403652E-2
2.403910375E0,1.395019051E-2,-8.459545672E-3,-1.745789545E-3,1.640790996E-2
2.413889375E0,3.587945923E-2,3.567556385E-3,-4.580458160E-3,3.634616418E-2
2.423868375E0,5.194284767E-2,8.282353170E-3,-4.960697610E-3,5.283242677E-2
2.433847375E0,5.369946733E-2,1.290693227E-2,-4.708741326E-4,5.523081943E-2
2.443826375E0,4.545431212E-2,1.742895693E-2,8.922678418E-3,4.949219352E-2
2.453805375E0,2.928439900E-2,1.718900539E-2,2.486489154E-2,4.208682410E-2
2.463784375E0,1.055756956E-2,1.361920685E-2,3.840320557E-2,4.209217586E-2
2.473763375E0,-4.141214769E-3,1.154274028E-2,5.135975033E-2,5.280348915E-2
2.483742375E0,-1.851483062E-2,8.947617374E-3,5.888545886E-2,6.237271899E-2
2.493721375E0,-2.579165064E-2,2.684395295E-3,6.467117369E-2,6.967622211E-2
2.503700375E0,-2.470960096E-2,-4.499928094E-3,6.064223498E-2,6.563759895E-2
2.513680375E0,-1.738191396E-2,-1.815395430E-2,5.091290548E-2,5.677870142E-2
2.523659375E0,-8.600398898E-3,-1.979298145E-2,3.763262182E-2,4.338136929E-2
2.533638375E0,-1.990966033E-3,-6.616724655E-3,2.349283174E-2,2.448791812E-2
2.543617375E0,4.737783223E-3,8.453987539E-3,9.801616892E-3,1.378362031E-2
2.553596375E0,1.129288785E-2,1.502187643E-2,7.934743189E-4,1.880998908E-2
2.563575375E0,1.669590175E-2,9.506052360E-3,-6.672526710E-3,2.033816067E-2
2.573554375E0,2.123606019E-2,-5.244131200E-3,-8.241394535E-3,2.337502403E-2
2.583533375E0,2.187469602E-2,-2.121867426E-2,-9.192073718E-3,3.183125323E-2
2.593512375E0,2.025549486E-2,-2.248607203E-2,-1.115349121E-2,3.225381952E-2
2.603491375E0,1.342021581E-2,-1.771338284E-2,-1.012099348E-2,2.441926766E-2
2.613470375E0,5.152964499E-3,-1.462772489E-3,-6.210141815E-3,8.201134546E-3
2.623449375E0,-4.829356447E-3,8.950401098E-3,-2.888878342E-3,1.057251066E-2
2.633428375E0,-1.121401880E-2,1.300879288E-2,-6.819168921E-4,1.718859856E-2
2.643407375E0,-1.126385294E-2,1.083983481E-2,1.174211036E-3,1.567658041E-2
2.653386375E0,-3.675441490E-3,7.921542972E-3,-1.370972022E-3,8.839642385E-3
2.663366375E0,-9.372923523E-5,7.835121825E-3,-9.136422537E-3,1.203628414E-2
2.673345375E0,-2.412681933E-4,1.760865748E-2,-1.764362492E-2,2.492830778E-2
2.683324375E0,-4.126014654E-3,2.730564214E-2,-2.168620750E-2,3.511287065E-2
2.693303375E0,-1.277489681E-2,3.286339343E-2,-2.325374447E-2,4.223668131E-2
2.703282375E0,-1.813532226E-2,2.909218334E-2,-2.271396853E-2,4.112383021E-2
2.713261375E0,-2.486326545E-2,1.392628066E-2,-2.022790723E-2,3.494698117E-2
2.723240375E0,-2.586088888E-2,-5.842034239E-3,-1.345634740E-2,2.973193945E-2
2.733219375E0,-2.600309998E-2,-1.538680308E-2,-7.766503841E-3,3.119669052E-2
2.743198375E0,-2.713654935E-2,-1.129101217E-2,-3.598753829E-3,2.961132040E-2
2.753177375E0,-2.047385275E-2,-5.514082033E-3,-2.906864509E-3,2.140171976E-2
2.763156375E0,-1.328810584E-2,1.910758088E-3,2.815082844E-4,1.342773250E-2
2.773135375E0,-5.683182739E-3,1.361588389E-2,8.469663560E-3,1.701252659E-2
2.783114375E0,2.591225784E-4,2.325791121E-2,1.383776031E-2,2.706438968E-2
2.793093375E0,4.891425371E-3,2.693866566E-2,9.894684888E-3,2.911224036E-2
2.803072375E0,5.162540823E-3,2.513831481E-2,1.465954119E-5,2.566294828E-2
2.813052375E0,4.404338542E-3,2.151348814E-2,-9.247547947E-3,2.382741096E-2
2.823031375E0,2.131871413E-3,1.789860055E-2,-1.888723485E-2,2.610809104E-2
2.833010375E0,-1.773388125E-3,1.253552549E-2,-2.816542238E-2,3.088001494E-2
2.842989375E0,-5.384092219E-3,1.414350234E-2,-2.758777328E-2,3.146605062E-2
2.852968375E0,-1.743018162E-3,1.205558330E-2,-2.512248419E-2,2.791978533E-2
2.862947375E0,4.428040702E-3,1.482788124E-3,-1.851694658E-2,1.909668861E-2
2.872926375E0,1.259835251E-2,-6.211883388E-3,-1.059670560E-2,1.759534457E-2
2.882905375E0,2.231250331E-2,-3.333527129E-3,-1.892987289E-3,2.263942596E-2
2.892884375E0,3.237152845E-2,-9.593190625E-4,1.103068935E-3,3.240451987E-2
2.902863375E0,3.725257143E-2,1.223444939E-2,2.977554686E-6,3.921014969E-2
2.912842375E0,3.764192760E-2,1.912591234E-2,-5.667691119E-3,4.260091500E-2
2.922821375E0,3.748052567E-2,2.041697688E-2,-4.321390297E-3,4.289891798E-2
2.932800375E0,3.280348331E-2,1.218567975E-2,-4.930987954E-3,3.533941072E-2
2.942779375E0,3.119466081E-2,-5.716721062E-4,1.071800711E-3,3.121830279E-2
2.952758375E0,3.012779728E-2,-1.683426462E-2,1.019336400E-3,3.452702826E-2
2.962737375E0,2.548033372E-2,-2.422342449E-2,2.011533594E-3,3.521459879E-2
2.972717375E0,1.862935349E-2,-1.798364148E-2,3.539655358E-3,2.613414113E-2
2.982696375E0,1.062151138E-2,-1.112701930E-2,4.239166621E-3,1.595611469E-2
2.992675375E0,4.138045479E-3,-5.954361521E-3,7.104462013E-3,1.015141478E-2
3.002654375E0,-2.217331436E-3,-7.350349799E-3,1.566944458E-2,1.744923191E-2
3.012633375E0,-8.546067402E-3,-6.489350460E-3,2.640038729E-2,2.849784880E-2
3.022612375E0,-1.522103231E-2,-4.989833105E-3,3.501613811E-2,3.850595002E-2
3.032591375E0,-1.290008705E-2,-7.496983744E-5,3.865161911E-2,4.074758307E-2
3.042570375E0,-1.046515256E-2,3.200932406E-3,3.652378917E-2,3.812810724E-2
3.052549375E0,-9.751426056E-3,7.215115242E-3,2.611828595E-2,2.879779608E-2
3.062528375E0,-1.134585869E-2,1.278478652E-2,1.497488189E-2,2.272501625E-2
3.072507375E0,-1.387586165E-2,1.572811231E-2,8.277830668E-3,2.254851512E-2
3.082486375E0,-2.004908770E-2,1.329426747E-2,1.134735416E-3,2.408300417E-2
3.092465375E0,-2.213620767E-2,1.309186779E-2,1.495061093E-3,2.576128684E-2
3.102444375E0,-2.266694978E-2,1.566295139E-2,1.577207586E-3,2.759721440E-2
3.112424375E0,-1.860349625E-2,1.937779412E-2,8.293918800E-4,2.687520918E-2
3.122403375E0,-1.110751927E-2,2.248478495E-2,-3.275688505E-3,2.529175110E-2
3.132382375E0,-3.762255423E-3,2.163044177E-2,-9.119195864E-3,2.377373152E-2
3.142361375E0,-1.126780640E-3,2.463018522E-2,-1.423831191E-2,2.847183142E-2
3.152340375E0,2.783006290E-3,2.497240156E-2,-2.121472731E-2,3.288511242E-2
3.162319375E0,3.640818410E-3,1.899235882E-2,-2.603116445E-2,3.242817872E-2
3.172298375E0,3.897547023E-3,9.041724727E-3,-2.545831911E-2,2.729596437E-2
3.182277375E0,3.035948612E-5,-1.000684453E-3,-2.147563361E-2,2.149895648E-2
3.192256375E0,-9.918677621E-3,5.657868460E-4,-1.668221131E-2,1.941639654E-2
3.202235375E0,-2.740577981E-2,1.044574380E-2,-1.241309103E-2,3.184768687E-2
3.212214375E0,-3.321866319E-2,1.496379636E-2,-7.236172445E-3,3.714508012E-2
3.222193375E0,-3.012808971E-2,9.879892692E-3,-7.726812619E-4,3.171610168E-2
3.232172375E0,-1.578616910E-2,5.993542261E-3,-2.028095536E-3,1.700702370E-2
3.242151375E0,-2.508966951E-3,-3.528429661E-3,-9.247584268E-3,1.021090328E-2
3.252130375E0,2.307359828E-3,2.350232331E-3,-1.382369455E-2,1.421063096E-2
3.262110375E0,2.510564867E-3,1.148109324E-2,-1.810495555E-2,2.158489874E-2
3.272089375E0,-4.199801944E-3,1.603083685E-2,-1.645858958E-2,2.335618200E-2
3.282068375E0,-1.687910408E-2,1.712681539E-2,-8.170142770E-3,2.539651931E-2
3.292047375E0,-2.436684631E-2,1.243965235E-2,3.076918889E-3,2.753099307E-2
3.302026375E0,-2.924922109E-2,-3.160268534E-4,1.813037694E-2,3.441405781E-2
3.312005375E0,-3.080424294E-2,-1.410747319E-2,3.228694201E-2,4.680137612E-2
3.321984375E0,-3.121171705E-2,-2.676477470E-2,3.975218534E-2,5.719056466E-2
3.331959000E0,-2.213886194E-2,-3.525466844E-2,3.985045105E-2,5.762880620E-2
3.341938000E0,-1.182896551E-2,-4.516295716E-2,3.753936291E-2,5.990676833E-2
3.351917000E0,-7.315732073E-4,-4.788577184E-2,3.885097057E-2,6.166830838E-2
3.361896000E0,4.317258950E-3,-4.276169091E-2,4.250995815E-2,6.045078557E-2
3.371875000E0,6.643796340E-3,-3.610059246E-2,4.950688034E-2,6.163054444E-2
3.381854000E0,7.952202111E-3,-2.511925995E-2,5.110687390E-2,5.749893302E-2
3.391833000E0,8.666994050E-3,-1.526157092E-2,4.668762162E-2,4.987751343E-2
3.401812000E0,1.787194237E-2,-1.540368423E-3,2.803611383E-2,3.328367073E-2
3.411791000E0,3.127163649E-2,2.094846219E-3,3.783770837E-3,3.156929760E-2
3.421771000E0,4.210379347E-2,-1.384932548E-3,-2.222248353E-2,4.762862834E-2
3.431750000E0,4.044011608E-2,-2.076023258E-3,-3.769358620E-2,5.532196039E-2
3.441729000E0,3.509541228E-2,3.143749433E-3,-4.562868923E-2,5.765022467E-2
3.451708000E0,2.392265201E-2,6.477761082E-3,-4.625453055E-2,5.247605420E-2
3.461687000E0,1.613503881E-2,-9.659018833E-4,-4.132676497E-2,4.437537545E-2
3.471666000E0,3.728969023E-3,-1.366651803E-2,-3.001152538E-2,3.318690375E-2
3.481645000E0,-2.841327107E-3,-2.201648802E-2,-1.937440038E-2,2.946466145E-2
3.491624000E0,-1.340662036E-2,-2.362636849E-2,-1.261449791E-2,2.995109873E-2
3.501603000E0,-2.253033221E-2,-1.767430827E-2,-6.167978514E-3,2.929233690E-2
3.511582000E0,-3.376621008E-2,-9.609457105E-3,3.527259454E-3,3.528370967E-2
3.521561000E0,-4.806048796E-2,2.582362853E-3,1.335852314E-2,4.994926667E-2
3.531540000E0,-6.877135485E-2,1.805186644E-2,2.528389357E-2,7.546286772E-2
3.541519000E0,-8.379849792E-2,4.676203057E-2,3.730088845E-2,1.029574283E-1
3.551498000E0,-8.477002382E-2,7.675056159E-2,4.986674711E-2,1.247529483E-1
3.561477000E0,-5.970568582E-2,8.615117520E-2,6.143054366E-2,1.214928212E-1
3.571457000E0,-1.776888594E-2,7.186118513E-2,6.641491503E-2,9.945201946E-2
3.581436000E0,2.443610877E-2,4.648403451E-2,5.810116976E-2,7.831752552E-2
3.591415000E0,5.406431109E-2,2.840063721E-2,3.957169130E-2,7.276994352E-2
3.601394000E0,6.540699303E-2,1.838818565E-2,1.493956707E-2,6.956572988E-2
3.611373000E0,6.328178942E-2,1.440383215E-2,-6.263722200E-3,6.520191308E-2
3.621352000E0,5.768647045E-2,4.155739211E-3,-2.576787397E-2,6.331652525E-2
3.631331000E0,5.930647254E-2,-3.964505158E-3,-3.627111763E-2,6.963166636E-2
3.641310000E0,7.395599782E-2,-1.410153974E-2,-4.303053394E-2,8.671775994E-2
3.651289000E0,9.900967777E-2,-3.376019746E-2,-4.823355004E-2,1.151917643E-1
3.661268000E0,1.230649054E-1,-5.517571047E-2,-5.184017867E-2,1.444878337E-1
3.671247000E0,1.334887892E-1,-5.760930851E-2,-5.587886274E-2,1.557579422E-1
3.681226000E0,1.258860379E-1,-4.962738231E-2,-5.522239953E-2,1.461495297E-1
3.691205000E0,1.052630469E-1,-3.369528800E-2,-5.536488071E-2,1.236161458E-1
3.701184000E0,8.432500064E-2,-2.467324585E-2,-5.696600676E-2,1.047119894E-1
3.711163000E0,6.813404709E-2,-2.099888213E-2,-5.544081703E-2,9.031547828E-2
3.721143000E0,5.917143449E-2,-2.646351978E-2,-5.442495272E-2,8.463836020E-2
3.731122000E0,5.604834482E-2,-2.529039793E-2,-5.434106290E-2,8.206078419E-2
3.741101000E0,4.755793139E-2,-1.541704684E-2,-5.541054904E-2,7.463089921E-2
3.751080000E0,3.764404729E-2,2.530261874E-3,-5.522466451E-2,6.688228534E-2
3.761059000E0,2.253594622E-2,1.624877006E-2,-4.511697590E-2,5.298521412E-2
3.771038000E0,1.289317198E-2,2.462148294E-2,-3.314873204E-2,4.325840660E-2
3.781017000E0,2.220819704E-3,2.569027245E-2,-2.656545676E-2,3.702223159E-2
3.790996000E0,-6.294105202E-3,2.210512571E-2,-1.928677037E-2,3.000386399E-2
3.800975000E0,-2.311569825E-2,2.057573572E-2,-1.389020029E-2,3.392099748E-2
3.810954000E0,-4.314213619E-2,2.089291811E-2,-6.017364562E-3,4.831114383E-2
3.820933000E0,-6.412306428E-2,2.958431467E-2,3.045772668E-3,7.068433899E-2
3.830912000E0,-7.681915164E-2,2.749746107E-2,1.420548279E-2,8.281961220E-2
3.840891000E0,-7.902956754E-2,1.793766022E-2,2.348509803E-2,8.437406017E-2
3.850870000E0,-7.450032979E-2,3.504393622E-3,3.259204328E-2,8.139300461E-2
3.860849000E0,-6.040979922E-2,-2.883099951E-3,4.035981745E-2,7.270880945E-2
3.870828000E0,-3.789170459E-2,-1.602841076E-4,4.031960294E-2,5.533061855E-2
3.880808000E0,-1.066809241E-2,9.095156565E-3,3.549544513E-2,3.816355190E-2
3.890787000E0,1.443619560E-2,1.134392992E-2,2.360602841E-2,2.990540196E-2
3.900766000E0,3.537344560E-2,8.947981521E-3,9.356918745E-3,3.766827518E-2
3.910745000E0,4.702424258E-2,1.472221920E-3,-8.059621789E-3,4.773263382E-2
3.920724000E0,4.879336059E-2,-1.220736373E-2,-2.517383359E-2,5.624529905E-2
3.930703000E0,4.762529582E-2,-2.659855410E-2,-3.942121193E-2,6.730292588E-2
3.940682000E0,3.605653346E-2,-3.044433892E-2,-4.166716337E-2,6.295302916E-2
3.950661000E0,2.361131459E-2,-2.065855265E-2,-4.078352824E-2,5.145450563E-2
3.960640000E0,1.625274122E-2,9.046796476E-4,-3.613168746E-2,3.962914182E-2
3.970619000E0,1.719603315E-2,2.478577755E-2,-2.341722324E-2,3.818906479E-2
3.980598000E0,3.042502701E-2,3.987753019E-2,-1.231707167E-2,5.164891032E-2
3.990577000E0,4.501914978E-2,4.246399179E-2,-2.894541714E-3,6.195395724E-2
4.000556000E0,5.987131968E-2,3.814231977E-2,-1.856247429E-3,7.101307719E-2
4.010535000E0,6.565544009E-2,2.680044807E-2,-5.473885685E-3,7.112569335E-2
4.020514000E0,6.127348170E-2,1.706721261E-2,-1.237104926E-2,6.479793334E-2
4.030493000E0,5.135720223E-2,1.465944946E-2,-1.856076904E-2,5.654169989E-2
4.040473000E0,3.265115619E-2,1.150213275E-2,-1.696645468E-2,3.855201218E-2
4.050452000E0,1.662478596E-2,9.396903217E-3,-1.119192224E-2,2.213468820E-2
4.060431000E0,7.544468157E-3,-6.720621604E-3,-7.292171009E-3,1.246039777E-2
4.070410000E0,6.830208935E-3,-3.046643175E-2,-2.105591120E-4,3.122338151E-2
4.080389000E0,1.738261664E-3,-4.507482424E-2,6.524416152E-3,4.557772856E-2
4.090368000E0,-1.192721725E-2,-4.443486780E-2,1.221186295E-2,4.760089899E-2
4.100347000E0,-2.619672380E-2,-2.667350322E-2,1.846561953E-2,4.169800015E-2
4.110326000E0,-3.675269336E-2,-9.663095698E-3,2.526360378E-2,4.563316297E-2
4.120305000E0,-3.543921188E-2,-1.133565325E-3,2.885675430E-2,4.571580665E-2
4.130284000E0,-2.724759653E-2,-8.523037657E-3,2.900242992E-2,4.069661692E-2
4.140263000E0,-1.922563277E-2,-1.477789879E-2,2.998106740E-2,3.856002659E-2
4.150242000E0,-1.534673944E-2,-2.029117569E-2,3.089160286E-2,4.001931221E-2
4.160221000E0,-1.074985042E-2,-2.330013178E-2,2.880830877E-2,3.857945151E-2
4.170200000E0,-1.408812311E-2,-2.503118664E-2,2.677711658E-2,3.926893798E-2
4.180179000E0,-2.206772938E-2,-2.922827192E-2,1.906740665E-2,4.128973911E-2
4.190159000E0,-3.673535585E-2,-2.680505998E-2,1.328674890E-2,4.737652696E-2
4.200138000E0,-5.065439269E-2,-2.041081339E-2,1.154193468E-2,5.581832189E-2
4.210117000E0,-5.996374041E-2,-2.536749095E-2,1.144046802E-2,6.610630885E-2
4.220096000E0,-6.153872609E-2,-3.680681065E-2,7.935965434E-3,7.214385397E-2
4.230075000E0,-5.700229853E-2,-4.337070510E-2,1.893629087E-4,7.162622395E-2
4.240054000E0,-5.134466290E-2,-4.187456891E-2,-6.286127493E-3,6.655275598E-2
4.250033000E0,-4.498982802E-2,-1.798468269E-2,-1.458746661E-2,5.059968003E-2
4.260012000E0,-3.691166639E-2,2.090352029E-2,-1.476980746E-2,4.491742968E-2
4.269991000E0,-2.547871321E-2,5.193999782E-2,-1.808144897E-2,6.061243270E-2
4.279970000E0,-1.188434474E-2,7.249686867E-2,-1.428316347E-2,7.484011208E-2
4.289949000E0,-1.379409805E-4,7.357118279E-2,-1.433775760E-2,7.495538178E-2
4.299928000E0,3.701790934E-3,5.374364927E-2,-8.530927822E-3,5.454227556E-2
4.309907000E0,2.620813902E-3,2.904602513E-2,3.171534277E-3,2.933596548E-2
4.319886000E0,-4.914070480E-3,4.188739695E-3,1.540837158E-2,1.670663172E-2
4.329865750E0,-1.270860992E-2,-1.617538743E-2,2.663546056E-2,3.365411838E-2
4.339844750E0,-1.832042634E-2,-2.720254660E-2,4.075109586E-2,5.230935267E-2
4.349824750E0,-1.502263360E-2,-3.578032553E-2,5.454627052E-2,6.694181685E-2
4.359803750E0,-5.939115304E-3,-4.758609086E-2,6.493414938E-2,8.072269130E-2
4.369782750E0,8.830776438E-3,-4.732909799E-2,6.651926041E-2,8.211478633E-2
4.379761750E0,2.516554110E-2,-4.205410928E-2,5.688095465E-2,7.508192571E-2
4.389740750E0,4.073224962E-2,-2.629592083E-2,4.284742847E-2,6.470312000E-2
4.399719750E0,4.444018006E-2,-1.470688637E-2,3.067140840E-2,5.596389375E-2
4.409698750E0,3.486584872E-2,3.946692683E-3,2.558583580E-2,4.342624533E-2
4.419677750E0,1.830683276E-2,2.271888778E-2,3.036320768E-2,4.210952824E-2
4.429656750E0,4.322307650E-3,2.728700824E-2,3.511295468E-2,4.467866099E-2
4.439635750E0,-4.193145782E-3,2.551202290E-2,4.053992033E-2,4.808254282E-2
4.449614750E0,-1.140631642E-2,2.224698663E-2,4.866549373E-2,5.471163266E-2
4.459593750E0,-1.700427011E-2,2.310409024E-2,5.554457009E-2,6.251514580E-2
4.469572750E0,-2.138543501E-2,3.281184286E-2,5.546946824E-2,6.790298792E-2
4.479551750E0,-2.146960422E-2,4.130296782E-2,5.251642317E-2,7.017730230E-2
4.489530750E0,-1.884665713E-2,3.555799648E-2,4.947109520E-2,6.377269682E-2
4.499509750E0,-1.750521921E-2,2.148799598E-2,5.150466040E-2,5.848843230E-2
4.509489750E0,-1.250246912E-2,4.854958039E-3,5.410736799E-2,5.574486185E-2
4.519468750E0,-6.395036355E-3,-9.394603781E-3,5.401286483E-2,5.519551284E-2
4.529447750E0,-1.602944685E-3,-1.729753427E-2,5.072013289E-2,5.361255453E-2
4.539426750E0,6.575368345E-3,-2.152760141E-2,4.051449522E-2,4.634757183E-2
4.549405750E0,1.103696227E-2,-1.546305045E-2,2.789777145E-2,3.375212760E-2
4.559384750E0,9.600149468E-3,5.342643708E-4,1.843276620E-2,2.078978542E-2
4.569363750E0,1.211763546E-2,8.616957814E-3,1.032850053E-2,1.810433579E-2
4.579342750E0,2.022113465E-2,3.732000710E-3,8.838556707E-3,2.238173810E-2
4.589321750E0,2.790994756E-2,-1.209995896E-2,5.766068585E-3,3.096161699E-2
4.599300750E0,3.567332029E-2,-2.252731100E-2,7.672384381E-3,4.288275882E-2
4.609279750E0,3.429513797E-2,-2.295634523E-2,6.068362389E-3,4.171301112E-2
4.619258750E0,2.555036359E-2,-1.170673035E-2,-2.783245291E-4,2.810597942E-2
4.629237750E0,1.665966772E-2,3.289795481E-3,-7.971397601E-3,1.875927670E-2
4.639216750E0,1.087447908E-2,1.680526324E-2,-1.128828060E-2,2.298034914E-2
4.649195750E0,1.071915729E-3,3.355121985E-2,-6.965171080E-3,3.428333363E-2
4.659174750E0,-5.529271439E-3,4.069725797E-2,2.457405906E-3,4.114460466E-2
4.669154750E0,-3.402470844E-3,3.418449685E-2,1.198539697E-2,3.638415003E-2
4.679133750E0,3.185950452E-3,2.775868773E-2,1.804921031E-2,3.326362905E-2
4.689112750E0,7.249667775E-3,1.499202568E-2,1.690351963E-2,2.372862180E-2
4.699091750E0,5.360156298E-3,1.076872088E-2,1.733767428E-2,2.110193295E-2
4.709070750E0,-3.184329486E-3,1.642447710E-2,1.383934543E-2,2.171245919E-2
4.719049750E0,-1.389851142E-2,2.297287807E-2,1.322585065E-2,2.993066775E-2
4.729028750E0,-2.380467206E-2,4.492025450E-2,1.378378365E-2,5.267337437E-2
4.739007750E0,-2.655811608E-2,6.061099470E-2,2.165217698E-2,6.962645313E-2
4.748986750E0,-1.884400472E-2,6.385844946E-2,3.484680876E-2,7.514850738E-2
4.758965750E0,-2.425604034E-3,5.154382437E-2,4.185718298E-2,6.644300680E-2
4.768944750E0,1.748844981E-2,3.876118362E-2,4.381300882E-2,6.105616246E-2
4.778923750E0,3.277205676E-2,2.273832820E-2,3.937214613E-2,5.604645541E-2
4.788902750E0,4.165929556E-2,4.433889408E-3,2.988863178E-2,5.146344908E-2
4.798881750E0,4.157381877E-2,-1.417225227E-2,1.736824028E-2,4.723230793E-2
4.808860750E0,3.422349319E-2,-2.601000294E-2,2.839897526E-3,4.307937740E-2
4.818839750E0,2.216816135E-2,-3.135170415E-2,-1.189596578E-2,4.019789463E-2
4.828819750E0,2.383272629E-3,-2.247565798E-2,-2.754097246E-2,3.562780311E-2
4.838798750E0,-2.375753038E-2,6.165143568E-4,-3.792823106E-2,4.475880976E-2
4.848777750E0,-5.045252293E-2,3.420589864E-2,-3.802277148E-2,7.184171297E-2
4.858756750E0,-7.272241265E-2,5.443932116E-2,-2.729400061E-2,9.485331549E-2
4.868735750E0,-8.680228144E-2,5.407632887E-2,-6.621212233E-3,1.024828076E-1
4.878714750E0,-8.902840316E-2,4.114132747E-2,1.693363674E-2,9.952594360E-2
4.888693750E0,-8.039043844E-2,2.874617651E-2,3.569320962E-2,9.253631973E-2
4.898672750E0,-6.480243057E-2,1.904527098E-2,3.828401864E-2,7.763854350E-2
4.908651750E0,-4.824608937E-2,1.120332628E-2,1.952071488E-2,5.323774947E-2
4.918630750E0,-3.699849918E-2,8.752141148E-3,-6.551872473E-3,3.857999416E-2
4.928609750E0,-3.657585755E-2,9.870402515E-3,-3.190276772E-2,4.952781834E-2
4.938588750E0,-3.773166984E-2,1.019150484E-2,-4.775728285E-2,6.171145555E-2
4.948567750E0,-3.674124181E-2,-2.278294414E-5,-5.536300316E-2,6.644532706E-2
4.958546750E0,-2.719380707E-2,-1.061157510E-2,-5.381431431E-2,6.122163909E-2
4.968525750E0,-1.258077752E-2,-2.169272117E-2,-4.797000811E-2,5.412921385E-2
4.978504750E0,4.971049726E-3,-2.487187460E-2,-4.019929096E-2,4.753214150E-2
4.988484750E0,2.242460847E-2,-2.751639485E-2,-4.070715606E-2,5.401006948E-2
4.998463750E0,3.861851618E-2,-3.198319674E-2,-4.070467502E-2,6.458471362E-2
5.008442750E0,4.716460034E-2,-3.851806000E-2,-4.836206138E-2,7.776264818E-2
5.018421750E0,4.784289002E-2,-4.809568450E-2,-5.588509142E-2,8.789357449E-2
5.028400750E0,4.402045533E-2,-5.670488626E-2,-5.966544896E-2,9.334457892E-2
5.038379750E0,4.155730084E-2,-6.079902500E-2,-5.657585338E-2,9.286742098E-2
5.048358750E0,4.025474936E-2,-5.483620986E-2,-4.960130155E-2,8.418873959E-2
5.058337750E0,4.277167842E-2,-4.277640209E-2,-3.887210786E-2,7.190464394E-2
5.068316750E0,4.326383024E-2,-3.068938293E-2,-3.587258980E-2,6.403467756E-2
5.078295750E0,4.266758636E-2,-1.526600122E-2,-3.464358672E-2,5.704166740E-2
5.088274750E0,3.691888601E-2,-1.139589399E-2,-3.229308128E-2,5.035586999E-2
5.098253750E0,2.754640393E-2,-7.909392938E-3,-2.807607129E-2,4.012017753E-2
5.108232750E0,1.873267256E-2,-8.191155270E-3,-2.513993904E-2,3.240408278E-2
5.118211750E0,8.256588131E-3,-8.365413174E-3,-2.490813471E-2,2.754208707E-2
5.128190750E0,-2.624022774E-3,-9.000577033E-3,-1.889950968E-2,2.109709337E-2
5.138169750E0,-8.787905797E-3,-1.382465474E-3,-1.714889333E-2,1.931898138E-2
5.148149750E0,-1.337972842E-2,5.252534058E-3,-1.686819643E-2,2.216173047E-2
5.158128750E0,-1.140685752E-2,3.166416194E-3,-2.313002758E-2,2.598347101E-2
5.168107750E0,-9.407090023E-3,4.149122629E-3,-3.135227039E-2,3.299505145E-2
5.178086750E0,-5.130308215E-3,3.979641013E-3,-4.111854360E-2,4.162802220E-2
5.188065750E0,4.809673876E-3,1.433480904E-2,-5.115546286E-2,5.334323850E-2
5.198044750E0,2.144054696E-2,2.016625553E-2,-6.077037379E-2,6.752342739E-2
5.208023750E0,3.559152037E-2,2.632455155E-2,-7.071115822E-2,8.342545315E-2
5.218002750E0,4.220708832E-2,2.846614830E-2,-7.021038234E-2,8.672518488E-2
5.227981750E0,3.898173198E-2,2.535078116E-2,-6.280386448E-2,7.814450030E-2
5.237960750E0,2.982181124E-2,1.577370428E-2,-4.947604984E-2,5.988346750E-2
5.247939750E0,2.101740055E-2,4.819323774E-3,-4.028787836E-2,4.569540623E-2
5.257918750E0,1.503912173E-2,-1.351597719E-2,-3.548139334E-2,4.083853689E-2
5.267897750E0,1.001932938E-2,-3.097912297E-2,-4.114300758E-2,5.246751465E-2
5.277876750E0,5.573716946E-3,-4.844745621E-2,-5.431115255E-2,7.299262720E-2
5.287855750E0,-5.217259750E-4,-6.617132574E-2,-6.668899208E-2,9.394859346E-2
5.297834750E0,-1.078580692E-2,-7.804441452E-2,-7.743841410E-2,1.104715902E-1
5.307814750E0,-3.234995529E-2,-7.239264995E-2,-7.925841957E-2,1.121120531E-1
5.317793750E0,-5.865480751E-2,-4.910646379E-2,-6.384139508E-2,9.963711635E-2
5.327772000E0,-9.333608299E-2,-6.219616532E-2,-5.233893543E-2,1.237713680E-1
5.337751000E0,-1.245027706E-1,-3.991277888E-2,-4.465702549E-2,1.381601235E-1
5.347730000E0,-1.313388497E-1,-1.198953576E-2,-2.999046259E-2,1.352518770E-1
5.357709000E0,-1.143742353E-1,-9.838351049E-3,-1.433870196E-2,1.156886218E-1
5.367688000E0,-8.408850431E-2,-3.392968327E-3,1.255703624E-3,8.416629719E-2
5.377667000E0,-5.311967060E-2,-9.443884715E-3,1.712411270E-2,5.660496090E-2
5.387646000E0,-2.989850380E-2,-1.431347430E-2,2.186373994E-2,3.970918281E-2
5.397625000E0,-1.912014931E-2,-2.305654623E-2,1.826756448E-2,3.508401838E-2
5.407604000E0,-2.259184606E-2,-3.123804182E-2,1.101094647E-3,3.856707371E-2
5.417583000E0,-3.252092376E-2,-3.445577249E-2,-1.451075356E-2,4.955171752E-2
5.427562000E0,-4.777684063E-2,-4.410573840E-2,-2.998878062E-2,7.160495530E-2
5.437541000E0,-6.383386254E-2,-5.026534200E-2,-3.885067999E-2,9.005965772E-2
5.447520000E0,-7.581275702E-2,-5.930970609E-2,-3.691802546E-2,1.030929482E-1
5.457499000E0,-8.490105718E-2,-7.711385190E-2,-3.374263644E-2,1.195545950E-1
5.467479000E0,-8.912242949E-2,-8.324790746E-2,-2.718673460E-2,1.249485497E-1
5.477458000E0,-8.762865514E-2,-7.115894556E-2,-1.123661455E-2,1.134400205E-1
5.487437000E0,-8.078992367E-2,-6.336387247E-2,3.637405578E-3,1.027386141E-1
5.497416000E0,-6.456065178E-2,-4.252476990E-2,7.942071185E-3,7.771428638E-2
5.507395000E0,-4.842189699E-2,-1.736961491E-2,4.157985561E-3,5.161077867E-2
5.517374000E0,-3.316940740E-2,5.227980204E-3,1.516173943E-3,3.361309488E-2
5.527353000E0,-2.093297988E-2,2.142931893E-2,-2.443680307E-3,3.005622947E-2
5.537332000E0,-1.764850318E-2,2.679346129E-2,-2.100871061E-4,3.208431656E-2
5.547311000E0,-2.086400427E-2,2.550635487E-2,-4.048767500E-3,3.320050197E-2
5.557290000E0,-2.552984469E-2,1.869749464E-2,-5.552486517E-3,3.212785991E-2
5.567269000E0,-3.094404936E-2,5.196600221E-3,-1.261945069E-2,3.381995536E-2
5.577248000E0,-3.160853684E-2,-1.071624830E-2,-2.142572403E-2,3.966105431E-2
5.587227000E0,-2.948066965E-2,-2.765315399E-2,-2.692941390E-2,4.856953923E-2
5.597206000E0,-2.702203020E-2,-3.982131556E-2,-2.205034345E-2,5.293529008E-2
5.607185000E0,-2.639006265E-2,-4.137633368E-2,-5.613580346E-3,4.939583666E-2
5.617164000E0,-2.381692268E-2,-2.691638470E-2,1.050170325E-2,3.744360215E-2
5.627143000E0,-1.911750995E-2,-7.599412464E-3,2.037590556E-2,2.895527212E-2
5.637123000E0,-1.082628500E-2,1.881249715E-3,2.041283995E-2,2.318257065E-2
5.647102000E0,6.111925468E-4,-1.699370332E-3,2.583130635E-2,2.589435853E-2
5.657081000E0,1.206838526E-2,-7.107631769E-3,3.086377308E-2,3.389302053E-2
5.667060000E0,2.070821263E-2,-1.014523208E-2,3.147283942E-2,3.901660448E-2
5.677039000E0,2.993047051E-2,-1.182469726E-2,2.775648236E-2,4.249798635E-2
5.687018000E0,3.141225129E-2,-9.378584102E-3,1.711662114E-2,3.698196980E-2
5.696997000E0,3.055019490E-2,-2.204740886E-3,1.438304223E-2,3.383854599E-2
5.706976000E0,1.941125840E-2,9.917169809E-3,1.436173636E-2,2.610376756E-2
5.716955000E0,1.068753470E-2,1.101157814E-2,1.761788875E-2,2.336382364E-2
5.726934000E0,2.970759058E-3,4.361132625E-3,1.893002912E-2,1.965174012E-2
5.736913000E0,-3.589661792E-3,1.963181188E-3,1.870420203E-2,1.914645987E-2
5.746892000E0,-1.549931802E-2,8.541455492E-3,2.191650681E-2,2.816946204E-2
5.756871000E0,-2.054042369E-2,2.446035109E-2,2.959403768E-2,4.354336743E-2
5.766850000E0,-1.367692370E-2,3.097976930E-2,3.109552898E-2,4.597538766E-2
5.776829000E0,2.743338700E-3,3.867093846E-2,2.781851962E-2,4.771621761E-2
5.786808000E0,1.646341197E-2,4.563830048E-2,1.574081741E-2,5.100658523E-2
5.796788000E0,2.610111423E-2,5.158118531E-2,-6.139315083E-4,5.781231490E-2
5.806767000E0,3.200986981E-2,5.502651632E-2,-1.622777805E-2,6.569543397E-2
5.816746000E0,3.145457804E-2,5.953545496E-2,-3.032190725E-2,7.384631972E-2
5.826725000E0,2.845532447E-2,6.507243961E-2,-3.429827094E-2,7.887014186E-2
5.836704000E0,2.808836848E-2,6.646227092E-2,-2.993015386E-2,7.811532506E-2
5.846683000E0,3.243358061E-2,6.119480357E-2,-2.322804183E-2,7.304986695E-2
5.856662000E0,3.679665178E-2,4.641036317E-2,-1.582299173E-2,6.130483226E-2
5.866641000E0,3.728720546E-2,3.346526995E-2,-1.105753239E-2,5.130817680E-2
5.876620000E0,3.776337579E-2,2.423008531E-2,-5.034913775E-3,4.514997167E-2
5.886599000E0,3.606268018E-2,1.364641637E-2,-5.053822417E-3,3.888807919E-2
5.896578000E0,3.087881953E-2,3.039533272E-3,-4.085930530E-3,3.129592763E-2
5.906557000E0,3.148735315E-2,-5.004544742E-3,-1.640349859E-3,3.192474939E-2
5.916536000E0,3.106763959E-2,-1.538560912E-2,5.759933265E-4,3.467343314E-2
5.926515000E0,2.681963146E-2,-2.121846564E-2,7.660268340E-3,3.504562208E-2
5.936494000E0,2.064375766E-2,-2.271177620E-2,1.698141545E-2,3.507645904E-2
5.946473000E0,1.259035897E-2,-2.339647338E-2,2.164647728E-2,3.427071759E-2
5.956453000E0,3.832549788E-3,-2.142021805E-2,2.160235122E-2,3.066228559E-2
5.966432000E0,2.457026858E-3,-2.474544011E-2,1.988780871E-2,3.184177637E-2
5.976411000E0,8.009197190E-3,-2.483555861E-2,1.588914543E-2,3.055187643E-2
5.986390000E0,1.780270599E-2,-1.940191165E-2,5.578184035E-3,2.691628974E-2
5.996369000E0,2.767476067E-2,-3.468368668E-4,-2.476389520E-3,2.778750041E-2
6.006348000E0,3.512894735E-2,1.541854348E-2,-7.729209028E-3,3.913457674E-2
6.016327000E0,3.556251153E-2,2.461863682E-2,-4.226292018E-3,4.345838296E-2
6.026306000E0,3.289828449E-2,2.745410427E-2,-1.335963258E-3,4.286968348E-2
6.036285000E0,2.556473017E-2,2.655786462E-2,-1.878341893E-3,3.691075412E-2
6.046264000E0,1.442206278E-2,2.204141021E-2,-7.480300963E-3,2.738201164E-2
6.056243000E0,4.107934423E-3,1.285789534E-2,-2.128473297E-2,2.520397698E-2
6.066222000E0,2.437599935E-3,-2.665403765E-3,-3.908982873E-2,3.925634956E-2
6.076201000E0,9.475472616E-4,-1.956878789E-2,-6.208162382E-2,6.509964149E-2
6.086180000E0,6.571344566E-3,-3.425825015E-2,-7.400753349E-2,8.181641208E-2
6.096159000E0,1.396376267E-2,-4.510380328E-2,-7.970371842E-2,9.263920589E-2
6.106138000E0,2.376179956E-2,-4.611926526E-2,-7.111102343E-2,8.802492487E-2
6.116118000E0,3.052383102E-2,-2.901697718E-2,-5.786899105E-2,7.157170775E-2
6.126097000E0,3.563230485E-2,-3.231186885E-3,-4.069053754E-2,5.418322215E-2
6.136076000E0,4.052584991E-2,1.537274849E-2,-1.993849501E-2,4.770963729E-2
6.146055000E0,4.245238006E-2,2.786963060E-2,-2.614897676E-3,5.085035470E-2
6.156034000E0,4.404389486E-2,2.411313727E-2,1.030789781E-2,5.125973879E-2
6.166013000E0,4.423990473E-2,3.242477775E-3,1.865104772E-2,4.812010405E-2
6.175992000E0,3.289776295E-2,-1.987583935E-2,1.444774587E-2,4.106152893E-2
6.185971000E0,9.584982879E-3,-4.239739105E-2,6.153064314E-3,4.390069322E-2
6.195950000E0,-1.420238148E-2,-4.942656308E-2,2.615368925E-3,5.149303771E-2
6.205929000E0,-3.096937761E-2,-4.952563345E-2,-3.881146200E-3,5.854019144E-2
6.215908000E0,-3.811303526E-2,-4.276997969E-2,-1.038727257E-2,5.822173177E-2
6.225887000E0,-3.875618801E-2,-2.689008415E-2,-9.012548253E-3,4.802441837E-2
6.235866000E0,-3.401709348E-2,-1.812568493E-2,-6.979697384E-3,3.917166423E-2
6.245845000E0,-2.935469709E-2,-3.137464449E-2,-5.199640524E-3,4.327935789E-2
6.255824000E0,-4.030720890E-2,-8.039556444E-2,-1.854144782E-2,9.182539495E-2
6.265803000E0,-5.959408730E-2,-8.185497671E-2,-2.862044796E-2,1.052179761E-1
6.275782000E0,-8.365149051E-2,-1.169663146E-1,-4.275918379E-2,1.500234596E-1
6.285762000E0,-1.062151268E-1,-1.413443536E-1,-6.471721083E-2,1.882769153E-1
6.295741000E0,-1.168504581E-1,-1.489055455E-1,-7.983683795E-2,2.054283615E-1
6.305720000E0,-1.096609905E-1,-1.502733529E-1,-8.457406610E-2,2.043535810E-1
6.315699000E0,-8.788459003E-2,-1.172419488E-1,-7.752304524E-2,1.657685081E-1
6.325678000E0,-4.894890264E-2,-6.826002151E-2,-6.118082255E-2,1.039159211E-1
6.335657708E0,-4.274936859E-3,-9.953672998E-5,-3.337449580E-2,3.364731732E-2
6.345636708E0,4.058467969E-2,6.605631113E-2,-8.365019225E-3,7.797772767E-2
6.355615708E0,7.273943722E-2,1.089940295E-1,1.049163006E-2,1.314564509E-1
6.365594708E0,8.932773769E-2,1.158652455E-1,2.175653540E-2,1.479106036E-1
6.375573708E0,8.927555382E-2,9.064415097E-2,2.217476256E-2,1.291441315E-1
6.385552708E0,7.314877957E-2,4.715047032E-2,1.116578747E-2,8.774158429E-2
6.395531708E0,4.365427047E-2,1.233503036E-2,-1.550334971E-3,4.538999717E-2
6.405510708E0,1.134959422E-2,-1.465051435E-2,-1.118831523E-2,2.164784648E-2
6.415489708E0,-1.857128739E-2,-3.122676350E-2,-1.292395778E-2,3.856205595E-2
6.425468708E0,-4.057299346E-2,-3.303717822E-2,-1.791677903E-3,5.235296603E-2
6.435447708E0,-4.255997017E-2,-3.224793449E-2,1.934299804E-2,5.679288611E-2
6.445426708E0,-3.044604883E-2,-2.215641923E-2,3.823146597E-2,5.366110129E-2
6.455406708E0,-9.480049834E-3,-7.564629894E-3,5.090858787E-2,5.233334778E-2
6.465385708E0,1.469133422E-2,1.685922034E-2,5.646953359E-2,6.073612464E-2
6.475364708E0,4.359248653E-2,3.240241855E-2,5.173771083E-2,7.501341435E-2
6.485343708E0,6.998734176E-2,4.061427340E-2,4.114872217E-2,9.077975846E-2
6.495322708E0,8.812318742E-2,3.666277230E-2,2.678757347E-2,9.913339057E-2
6.505301708E0,9.327667207E-2,2.427587658E-2,1.229997817E-2,9.716555562E-2
6.515280708E0,8.207090944E-2,1.405199431E-2,3.358887043E-3,8.333291572E-2
6.525259708E0,5.649870634E-2,-5.288415123E-3,1.428539108E-4,5.674585060E-2
6.535238708E0,2.750245482E-2,-3.066299669E-2,7.093444001E-4,4.119596530E-2
6.545217708E0,-1.155822072E-3,-4.788166285E-2,2.274218015E-3,4.794957382E-2
6.555196708E0,-2.207814530E-2,-5.656668916E-2,8.016973734E-3,6.124954441E-2
6.565175708E0,-3.785417601E-2,-4.928720370E-2,1.697158627E-2,6.442206013E-2
6.575154708E0,-3.929440305E-2,-2.487018146E-2,3.085717559E-2,5.580986760E-2
6.585133708E0,-2.954217419E-2,-8.192134090E-3,4.183578864E-2,5.186602286E-2
6.595112708E0,-1.413046662E-2,4.612726159E-3,4.398965836E-2,4.643314949E-2
6.605091708E0,-5.539380945E-4,1.197290421E-2,3.285950795E-2,3.497720036E-2
6.615071708E0,4.081001505E-3,1.339823753E-2,1.625582203E-2,2.145737850E-2
6.625050708E0,-4.210462794E-5,1.806915551E-2,-2.932786010E-3,1.830566545E-2
6.635029708E0,-8.886453696E-3,2.357080020E-2,-1.742315292E-2,3.062871103E-2
6.645008708E0,-1.678246073E-2,2.282804437E-2,-2.421980537E-2,3.727424809E-2
6.654987708E0,-1.922908798E-2,2.142812870E-2,-2.591399662E-2,3.873574248E-2
6.664966708E0,-1.809351705E-2,2.414322086E-2,-2.767168358E-2,4.093888793E-2
6.674945708E0,-1.729112864E-2,3.402975574E-2,-2.393636107E-2,4.505504175E-2
6.684924708E0,-1.160447951E-2,4.633196443E-2,-2.185323648E-2,5.252503039E-2
6.694903708E0,-2.416010248E-3,5.906580761E-2,-2.283090539E-2,6.337078961E-2
6.704882708E0,7.939691655E-3,7.008063793E-2,-1.952618919E-2,7.318200995E-2
6.714861708E0,1.666844264E-2,7.432392985E-2,-1.586434245E-2,7.780463283E-2
6.724840708E0,2.190128714E-2,7.541742176E-2,-5.556578282E-3,7.872946999E-2
6.734819708E0,2.270558104E-2,7.186720520E-2,-4.966673441E-4,7.537032090E-2
6.744798708E0,1.303937193E-2,7.047783583E-2,1.613997156E-4,7.167410002E-2
6.754777708E0,-1.766732428E-3,6.333304942E-2,3.194776131E-3,6.343818319E-2
6.764756708E0,-2.134549245E-2,5.253553391E-2,5.029960535E-3,5.692901610E-2
6.774736708E0,-4.051412642E-2,5.158285797E-2,1.002371404E-2,6.635254719E-2
6.784715708E0,-5.714743212E-2,5.409475043E-2,1.391166262E-2,7.990998298E-2
6.794694708E0,-7.226513326E-2,4.595213756E-2,2.380743623E-2,8.888555817E-2
6.804673708E0,-7.715149969E-2,3.436205909E-2,3.217029572E-2,9.037717043E-2
6.814652708E0,-7.060786337E-2,2.258512005E-2,3.544407338E-2,8.216958290E-2
6.824631708E0,-5.570001900E-2,1.932993904E-2,3.325521946E-2,6.769082864E-2
6.834610708E0,-3.125300631E-2,8.568095043E-3,2.646151930E-2,4.183747913E-2
6.844589708E0,-4.261868075E-3,-1.409274247E-2,1.788986847E-2,2.316929657E-2
6.854568708E0,1.159593463E-2,-4.069237411E-2,7.816413417E-3,4.302826198E-2
6.864547708E0,1.247797348E-2,-5.021503568E-2,3.707156517E-3,5.187477845E-2
6.874526708E0,3.543318016E-3,-5.378018320E-2,4.152979702E-3,5.405654861E-2
6.884505708E0,-1.090006996E-2,-5.336765945E-2,8.094725199E-3,5.506762367E-2
6.894484708E0,-1.702478528E-2,-4.969204590E-2,5.358619150E-3,5.280016608E-2
6.904463708E0,-1.635100693E-2,-4.116806760E-2,-1.788506284E-3,4.433242575E-2
6.914442708E0,-1.315603778E-2,-3.171883151E-2,-7.771301083E-3,3.520736745E-2
6.924421708E0,-9.440129623E-3,-1.290999167E-2,-1.222703513E-2,2.013167455E-2
6.934400708E0,-4.728458822E-3,1.484302338E-2,-1.875334047E-2,2.437952921E-2
6.944380708E0,2.827727934E-3,3.691396862E-2,-2.105457708E-2,4.259028458E-2
6.954359708E0,1.020443346E-2,5.517337471E-2,-2.040317841E-2,5.970361320E-2
6.964338708E0,2.176548354E-2,7.140107453E-2,-1.795972884E-2,7.677500620E-2
6.974317708E0,3.239416331E-2,6.919752806E-2,-1.592184231E-2,7.804604262E-2
6.984296708E0,4.055142775E-2,5.843036622E-2,-1.544699911E-2,7.278142463E-2
6.994275708E0,4.128485173E-2,3.970944881E-2,-1.473914366E-2,5.914830229E-2
7.004254708E0,2.499216236E-2,2.351529896E-2,-1.116704568E-2,3.608712200E-2
7.014233708E0,3.497776575E-3,9.281139821E-3,-1.062416285E-2,1.453433293E-2
7.024212708E0,-1.229743194E-2,-6.124182604E-3,-1.027129404E-2,1.715318997E-2
7.034191708E0,-2.755199745E-2,-1.791188493E-2,-1.184951700E-2,3.493364050E-2
7.044170708E0,-3.925818950E-2,-1.977343485E-2,-1.296431664E-2,4.582867742E-2
7.054149708E0,-3.805684671E-2,-1.529202797E-2,-1.537428517E-2,4.380112265E-2
7.064128708E0,-3.123036772E-2,-5.933414213E-3,-1.856981032E-2,3.681547402E-2
7.074107708E0,-1.408013329E-2,1.027960330E-2,-1.902173646E-2,2.580207076E-2
7.084086708E0,2.593386918E-3,1.717319526E-2,-1.517560054E-2,2.306389262E-2
7.094065708E0,1.755156368E-2,2.012104914E-2,-1.244825684E-2,2.945968608E-2
7.104045708E0,2.537193522E-2,1.811675355E-2,-8.863109164E-3,3.241151894E-2
7.114024708E0,2.834000438E-2,1.469506882E-2,-1.224201079E-2,3.419017000E-2
7.124003708E0,2.762228251E-2,5.909833126E-3,-2.035959065E-2,3.481995907E-2
7.133982708E0,2.026131190E-2,1.072084066E-3,-2.504585683E-2,3.223298107E-2
7.143961708E0,7.213155739E-3,6.013313308E-3,-2.614068240E-2,2.777633577E-2
7.153940708E0,-8.919141255E-4,1.100965962E-2,-2.551961131E-2,2.780752915E-2
7.163919708E0,-4.226990975E-3,9.792860597E-3,-1.908967458E-2,2.186740147E-2
7.173898708E0,-3.021110082E-3,1.109135337E-2,-1.150226779E-2,1.626183846E-2
7.183877708E0,-1.672218787E-3,1.083116233E-2,-5.820946302E-3,1.240942420E-2
7.193856708E0,4.619262647E-3,1.629863679E-2,-7.727409247E-4,1.695819204E-2
7.203835708E0,6.629416719E-3,2.320288122E-2,-6.487267092E-5,2.413145398E-2
7.213814708E0,3.853058442E-3,2.583025955E-2,-9.409190388E-4,2.613300014E-2
7.223793708E0,2.926785965E-4,2.338068374E-2,1.835159492E-5,2.338252274E-2
7.233772708E0,-4.378513433E-3,1.730506308E-2,1.589785446E-3,1.792104924E-2
7.243751708E0,-5.306358449E-3,4.437467549E-3,-1.271544606E-4,6.918433818E-3
7.253730708E0,-6.695186254E-3,-7.198989391E-3,1.271902293E-4,9.831945107E-3
7.263709708E0,-3.805390093E-3,-1.297911443E-2,5.445075803E-4,1.353642839E-2
7.273689708E0,2.201358788E-3,-1.721988991E-2,1.175397541E-3,1.739977438E-2
7.283668708E0,9.576184675E-3,-2.040077001E-2,-1.399879111E-3,2.257995552E-2
7.293647708E0,1.566764154E-2,-2.078364789E-2,-3.126781201E-3,2.621472433E-2
7.303626708E0,1.671799086E-2,-1.478860434E-2,-5.311904941E-3,2.294363465E-2
7.313605708E0,1.851616241E-2,-1.500344649E-2,-6.292298902E-3,2.464842191E-2
7.323584708E0,1.511370763E-2,-1.455150731E-2,-1.052885596E-2,2.347397135E-2
7.333563708E0,1.082973462E-2,-2.006867342E-2,-7.652448956E-3,2.405399716E-2
7.343542708E0,7.225944661E-3,-3.010106646E-2,-6.356021855E-3,3.160201721E-2
7.353521708E0,5.166792311E-3,-2.795395255E-2,-6.400048267E-3,2.913897431E-2
7.363500708E0,8.576436900E-3,-2.597522363E-2,-6.725220010E-3,2.816906276E-2
7.373479708E0,1.231471635E-2,-2.695952728E-2,-1.309203915E-2,3.240169501E-2
7.383458708E0,1.829111576E-2,-2.156715840E-2,-1.670967788E-2,3.284692637E-2
7.393437708E0,2.146720514E-2,-1.959388517E-2,-2.033198811E-2,3.547042392E-2
7.403416708E0,1.867514662E-2,-1.312213764E-2,-1.746403053E-2,2.873924077E-2
7.413395708E0,1.628975198E-2,-1.138515957E-2,-1.019366086E-2,2.233581428E-2
7.423374708E0,1.802320406E-2,-2.032272890E-2,-5.002893507E-3,2.762024870E-2
7.433353708E0,1.850499213E-2,-3.173105791E-2,-5.258207675E-3,3.710718957E-2
7.443333708E0,1.762508228E-2,-3.264771774E-2,-7.417764515E-3,3.783570047E-2
7.453312708E0,1.543780603E-2,-3.386190906E-2,-9.279990569E-3,3.835456903E-2
7.463291708E0,1.327079162E-2,-2.771906182E-2,-1.590593532E-2,3.460432165E-2
7.473270708E0,3.117208602E-3,-1.641184464E-2,-1.372207329E-2,2.161853208E-2
7.483249708E0,-4.277057946E-3,-1.787628978E-3,-3.277047654E-4,4.647174674E-3
7.493228708E0,-1.204921678E-2,1.019022614E-2,1.632606052E-2,2.270604734E-2
7.503207708E0,-1.720323227E-2,2.355290204E-2,3.106878698E-2,4.261408124E-2
7.513186708E0,-1.705141366E-2,2.646664903E-2,4.288413376E-2,5.320040551E-2
7.523165708E0,-1.297917310E-2,2.288949117E-2,4.498137161E-2,5.211248922E-2
7.533144708E0,-6.407045759E-3,1.968871988E-2,3.716976196E-2,4.254746914E-2
7.543123708E0,3.765583970E-4,1.815074496E-2,2.931823209E-2,3.448405533E-2
7.553102708E0,6.644045003E-3,1.986216754E-2,2.267116308E-2,3.086471560E-2
7.563081708E0,7.217956707E-3,1.852179877E-2,2.382537723E-2,3.102909165E-2
7.573060708E0,3.694315441E-3,1.475512795E-2,2.611562051E-2,3.022229975E-2
7.583039708E0,-4.937716294E-4,9.482364403E-4,2.225803211E-2,2.228369261E-2
7.593018708E0,-1.481271582E-3,-1.652502827E-2,2.118184790E-2,2.690615925E-2
7.602998708E0,-4.021661356E-3,-3.477194533E-2,1.562969014E-2,3.833469911E-2
7.612977708E0,-7.047258317E-3,-5.077270418E-2,6.004132796E-3,5.160989198E-2
7.622956708E0,-9.414009750E-3,-4.953113943E-2,-2.579235239E-3,5.048375786E-2
7.632935708E0,-8.298148401E-3,-3.663012758E-2,-9.928349406E-3,3.884839296E-2
7.642914708E0,-1.463144785E-3,-1.879786514E-2,-1.578650624E-2,2.459093950E-2
7.652893708E0,3.013872774E-3,2.025403082E-4,-2.314564586E-2,2.334192310E-2
7.662872708E0,7.338313386E-3,1.640840806E-2,-2.323885821E-2,2.937909511E-2
7.672851708E0,1.043187827E-2,2.241218835E-2,-2.468979172E-2,3.493874763E-2
7.682830708E0,1.048886962E-2,2.852573991E-2,-2.733484283E-2,4.087698443E-2
7.692809708E0,6.295965053E-3,3.063197993E-2,-2.693258598E-2,4.127131641E-2
7.702788708E0,-5.238451995E-3,3.195184097E-2,-1.973113231E-2,3.791673909E-2
7.712767708E0,-1.164520718E-2,2.724279836E-2,-1.023188885E-2,3.134441676E-2
7.722746708E0,-1.092242543E-2,2.047730424E-2,-6.685623899E-3,2.415195505E-2
7.732725708E0,-9.529848583E-3,1.593504101E-2,-6.307770032E-3,1.960947498E-2
7.742704708E0,-1.360336086E-3,1.410331763E-2,-5.249962211E-3,1.511013520E-2
7.752683708E0,1.108300220E-2,1.333795488E-2,-3.043521428E-3,1.760673169E-2
7.762662708E0,2.157132886E-2,2.364944853E-2,7.530809380E-4,3.201852238E-2
7.772642708E0,2.992408723E-2,3.852684796E-2,4.972617142E-3,4.903565979E-2
7.782621708E0,3.770744428E-2,4.703911394E-2,3.206142457E-3,6.037225309E-2
7.792600708E0,4.234904423E-2,5.219720304E-2,-2.368160640E-4,6.721640897E-2
7.802579708E0,4.745911807E-2,4.450786114E-2,-2.956169890E-3,6.513107193E-2
7.812558708E0,4.831931368E-2,2.658150345E-2,-1.565473503E-4,5.514849868E-2
7.822537708E0,3.866828233E-2,2.602666616E-3,2.704752842E-3,3.885004015E-2
7.832516708E0,2.340305410E-2,-2.493339404E-2,1.036375202E-2,3.573212051E-2
7.842495708E0,5.669064354E-3,-4.002925754E-2,1.530471444E-2,4.322862517E-2
7.852474708E0,-1.072270703E-2,-4.174436629E-2,1.304722298E-2,4.503108471E-2
7.862453708E0,-2.052926645E-2,-3.007865325E-2,6.223138887E-3,3.694460204E-2
7.872432708E0,-2.732884884E-2,-1.181150042E-2,-1.807090594E-3,2.982688548E-2
7.882411708E0,-2.312398329E-2,1.124668121E-2,-9.448498487E-3,2.739490035E-2
7.892390708E0,-1.005715411E-2,2.698602900E-2,-1.383433491E-2,3.194966248E-2
7.902369708E0,1.013653073E-2,2.925903723E-2,-1.981153525E-2,3.676054194E-2
7.912348708E0,2.078436129E-2,2.277559042E-2,-1.826100424E-2,3.583547780E-2
7.922327708E0,2.506432682E-2,2.000776678E-2,-1.734807342E-2,3.646212915E-2
7.932307708E0,1.708710752E-2,2.216928639E-2,-1.385067683E-2,3.122959735E-2
7.942286708E0,6.393717602E-3,2.259432524E-2,-1.086074580E-2,2.587158591E-2
7.952265708E0,1.032246510E-3,2.215118706E-2,-6.066547707E-3,2.299007660E-2
7.962244708E0,4.272248130E-3,2.398770303E-2,-1.112761907E-2,2.678592740E-2
7.972223708E0,3.475138685E-3,1.961746253E-2,-1.395743527E-2,2.432553030E-2
7.982202708E0,5.134288222E-3,1.240908541E-2,-1.583096944E-2,2.075971844E-2
7.992181708E0,1.088953926E-3,-2.290613484E-4,-1.803357154E-2,1.806787183E-2
8.002160708E0,-2.502585063E-3,-7.168726530E-3,-2.149994113E-2,2.280133857E-2
8.012139708E0,-3.335887101E-3,-1.556467172E-2,-2.302400954E-2,2.799093003E-2
8.022118708E0,-4.353480879E-3,-1.770611852E-2,-1.789982058E-2,2.555118404E-2
8.032097708E0,-4.246154334E-3,-5.806648172E-3,-1.676578447E-2,1.824386249E-2
8.042076708E0,2.023459645E-3,9.942754172E-3,-1.986064389E-2,2.230241972E-2
8.052055708E0,1.144786365E-2,1.681293361E-2,-2.263117954E-2,3.042858206E-2
8.062034708E0,1.737872325E-2,1.636791974E-2,-2.343625389E-2,3.345424958E-2
8.072013708E0,1.949645579E-2,8.888803422E-3,-2.666860446E-2,3.421018969E-2
8.081992708E0,1.738403738E-2,3.120928770E-3,-3.301758319E-2,3.744470258E-2
8.091971708E0,1.201802772E-2,-6.401683204E-3,-3.698093444E-2,3.940817238E-2
8.101951708E0,5.203264765E-3,-2.294310927E-2,-3.784672916E-2,4.456271014E-2
8.111930708E0,1.001220662E-4,-3.746404871E-2,-2.826117538E-2,4.692823249E-2
8.121909708E0,-1.263777725E-2,-3.484908864E-2,-1.895848662E-2,4.163648169E-2
8.131888708E0,-2.036947012E-2,-2.860804647E-2,-1.219104510E-2,3.717468516E-2
8.141867708E0,-2.424942888E-2,-2.120046318E-2,-7.898562588E-3,3.316446488E-2
8.151846708E0,-2.938241325E-2,-1.102473959E-2,-1.004244480E-2,3.295029270E-2
8.161825708E0,-3.060320579E-2,1.657233690E-3,-1.474452112E-2,3.401034447E-2
8.171804708E0,-3.305489570E-2,8.827764541E-3,-1.363851968E-2,3.683157308E-2
8.181783708E0,-2.824123204E-2,1.166403014E-2,-9.565215558E-3,3.201734116E-2
8.191762708E0,-2.306964621E-2,1.587806642E-2,-6.180967670E-3,2.867971288E-2
8.201741708E0,-1.361968648E-2,2.047042176E-2,1.060965937E-3,2.461015391E-2
8.211720708E0,-8.246478625E-3,2.170569263E-2,1.016192045E-2,2.534573198E-2
8.221699708E0,1.036768081E-3,1.435084082E-2,1.234384812E-2,1.895763980E-2
8.231678708E0,6.856821477E-3,-5.083684810E-3,8.834490553E-3,1.228446480E-2
8.241657708E0,1.009176299E-2,-1.441646740E-2,7.390128449E-4,1.761318689E-2
8.251636708E0,1.280661579E-2,-2.583211474E-2,-7.834825665E-3,2.987795263E-2
8.261615708E0,1.583223231E-2,-3.084524721E-2,-1.414465345E-2,3.744542798E-2
8.271595708E0,1.991673559E-2,-3.039700165E-2,-1.991499960E-2,4.143985129E-2
8.281574708E0,1.760165021E-2,-3.331502900E-2,-1.960873604E-2,4.247601413E-2
8.291553708E0,1.375336200E-2,-3.854646161E-2,-1.850754023E-2,4.491674203E-2
8.301532708E0,9.534115903E-3,-3.690835088E-2,-1.591415517E-2,4.130842609E-2
8.311511708E0,7.205975708E-3,-3.475173563E-2,-9.002694860E-3,3.661499324E-2
8.321490708E0,5.109801888E-3,-2.795295231E-2,-2.030539326E-3,2.848860664E-2
8.331469250E0,1.034898916E-3,-2.081434801E-2,4.006846808E-3,2.122175582E-2
8.341448250E0,-8.622256108E-3,-5.463621113E-3,7.399181370E-3,1.260723368E-2
8.351427250E0,-1.705780067E-2,8.168347180E-3,6.973776966E-3,2.015748061E-2
8.361406250E0,-2.372369170E-2,1.496952772E-2,2.145998413E-3,2.813370963E-2
8.371385250E0,-3.239896521E-2,1.422923990E-2,-2.666067332E-3,3.548622451E-2
8.381364250E0,-4.287876934E-2,7.014470175E-3,-6.768933497E-3,4.397283380E-2
8.391343250E0,-5.548589677E-2,-2.203240525E-3,-8.508024737E-3,5.617762449E-2
8.401322250E0,-6.827386469E-2,-1.144148037E-2,-1.138525549E-3,6.923528228E-2
8.411301250E0,-7.963997126E-2,-1.656060852E-2,3.032251028E-3,8.140008183E-2
8.421280250E0,-8.095504344E-2,-1.400157623E-2,4.585938994E-3,8.228483476E-2
8.431260250E0,-7.757177949E-2,-1.495003514E-2,3.431347199E-3,7.907375461E-2
8.441239250E0,-6.444665045E-2,-5.675578024E-3,2.607631497E-3,6.474861143E-2
8.451218250E0,-4.244653136E-2,-4.342632834E-3,8.048675954E-4,4.267568741E-2
8.461197250E0,-2.424409427E-2,-2.538074739E-3,-2.386398381E-3,2.449311796E-2
8.471176250E0,-1.090591680E-2,-1.388718374E-3,-1.475003897E-3,1.109248379E-2
8.481155250E0,-2.272480633E-3,-1.624674536E-3,3.242253326E-3,4.279712865E-3
8.491134250E0,4.021367989E-3,5.473182537E-3,-2.371667651E-4,6.795835170E-3
8.501113250E0,1.210565958E-2,8.106783032E-3,-5.126197822E-3,1.544489654E-2
8.511092250E0,2.015133761E-2,1.530511305E-3,-1.114668511E-2,2.307958971E-2
8.521071250E0,2.221076004E-2,-1.029871777E-2,-1.609004475E-2,2.929626238E-2
8.531050250E0,1.775156334E-2,-1.409644913E-2,-1.528837252E-2,2.734158396E-2
8.541029250E0,1.257145032E-2,-1.204341836E-2,-1.217114273E-2,2.124198683E-2
8.551008250E0,4.929498769E-3,-8.428135887E-3,-5.869583692E-3,1.139234152E-2
8.560987250E0,-3.310322063E-3,-6.251001265E-3,-3.005620325E-3,7.685506002E-3
8.570966250E0,-9.408429265E-3,-1.189870294E-2,3.204011591E-3,1.550365645E-2
8.580945250E0,-1.603224501E-2,-1.382363588E-2,6.349205039E-3,2.210063785E-2
8.590925250E0,-2.241956256E-2,-5.733868107E-3,6.767685525E-3,2.411048727E-2
8.600904250E0,-3.083355539E-2,-9.183401708E-4,6.873945706E-3,3.160383863E-2
8.610883250E0,-3.246287629E-2,3.475800157E-3,7.689489517E-3,3.354173181E-2
8.620862250E0,-3.029426560E-2,2.563933842E-3,8.695364930E-3,3.162160110E-2
8.630841250E0,-2.736077085E-2,3.909685649E-3,8.550101891E-3,2.893098107E-2
8.640820250E0,-2.409733273E-2,3.905957332E-3,1.314032637E-2,2.772374658E-2
8.650799250E0,-2.011164837E-2,5.073081702E-3,1.510162372E-2,2.565684308E-2
8.660778250E0,-1.159592532E-2,2.439748496E-3,1.348082349E-2,1.794855032E-2
8.670757250E0,-7.026501931E-3,-4.001174122E-3,1.242023055E-2,1.482036607E-2
8.680736250E0,-5.093845539E-3,-1.417231746E-2,1.355766691E-2,2.026356772E-2
8.690715250E0,-9.572991170E-3,-1.785334758E-2,1.222869102E-2,2.366273577E-2
8.700694250E0,-1.509691961E-2,-1.820648275E-2,8.513847366E-3,2.513719541E-2
8.710673250E0,-1.965493523E-2,-1.786636747E-2,7.679490838E-3,2.764955958E-2
8.720652250E0,-1.938515715E-2,-2.112394571E-2,4.530036356E-3,2.902630927E-2
8.730631250E0,-1.749696210E-2,-2.092118189E-2,1.575659146E-3,2.731889888E-2
8.740610250E0,-9.715473279E-3,-1.492507569E-2,-2.006292343E-3,1.792131453E-2
8.750589250E0,-7.618757896E-3,-7.648167200E-3,-8.911445737E-3,1.399834985E-2
8.760569250E0,-1.288995333E-2,6.231163163E-3,-1.350326836E-2,1.968035944E-2
8.770548250E0,-1.898994111E-2,1.457080618E-2,-1.536924765E-2,2.844538678E-2
8.780527250E0,-2.345446497E-2,1.257929578E-2,-1.229675859E-2,2.931826873E-2
8.790506250E0,-2.077025920E-2,7.769371383E-3,-9.955065325E-3,2.430782024E-2
8.800485250E0,-1.595872641E-2,3.946137149E-3,-7.179785520E-3,1.793884798E-2
8.810464250E0,-1.218636427E-2,-6.542733405E-3,-4.817537498E-3,1.464662084E-2
8.820443250E0,-1.659948751E-2,-2.021273971E-2,-5.614887923E-3,2.675116443E-2
8.830422250E0,-2.470455691E-2,-2.138753422E-2,-5.606547929E-3,3.315381021E-2
8.840401250E0,-3.398593888E-2,-2.208927833E-2,-4.314914811E-3,4.076271272E-2
8.850380250E0,-3.099813126E-2,-2.252840996E-2,-2.705081599E-3,3.841524259E-2
8.860359250E0,-2.477245778E-2,-2.139177360E-2,-2.270986326E-3,3.280914538E-2
8.870338250E0,-1.621521264E-2,-1.607323065E-2,3.191540949E-3,2.305358537E-2
8.880317250E0,-7.980186492E-3,-8.704796433E-3,9.988193400E-3,1.546676646E-2
8.890296250E0,-2.186723752E-3,-3.866980784E-3,1.899130270E-2,1.950397086E-2
8.900275250E0,4.684498534E-3,-3.466708120E-3,2.475252002E-2,2.542931063E-2
8.910254250E0,7.436882704E-3,-1.131036505E-2,2.894709446E-2,3.195568587E-2
8.920234250E0,6.474149879E-3,-1.653602161E-2,2.623067051E-2,3.167653237E-2
8.930213250E0,-3.129738383E-3,-2.125879377E-2,2.182492055E-2,3.062774448E-2
8.940192250E0,-1.702078804E-2,-2.602212504E-2,1.663761400E-2,3.526568327E-2
8.950171250E0,-3.138668835E-2,-2.262395434E-2,1.427783631E-2,4.124104903E-2
8.960150250E0,-4.488731548E-2,-1.671067253E-2,1.304745581E-2,4.964225791E-2
8.970129250E0,-4.772676528E-2,-2.099692356E-4,1.271371357E-2,4.939156531E-2
8.980108250E0,-4.298127815E-2,1.131406147E-2,1.561975479E-2,4.711024303E-2
8.990087250E0,-3.008785471E-2,2.349495515E-2,1.835469902E-2,4.235784337E-2
9.000066250E0,-1.756247692E-2,2.908679470E-2,2.022157609E-2,3.953978201E-2
9.010045250E0,-7.385762408E-3,2.853120305E-2,1.856600679E-2,3.483210648E-2
9.020024250E0,-4.009407014E-3,2.486882359E-2,1.766852289E-2,3.076865991E-2
9.030003250E0,-1.152029354E-2,3.386363387E-3,1.511455327E-2,1.930373904E-2
9.039982250E0,-2.635756135E-2,-1.986889169E-2,1.266843919E-2,3.535510216E-2
9.049961250E0,-4.289500043E-2,-4.273227975E-2,8.722070605E-3,6.117273338E-2
9.059940250E0,-5.277266353E-2,-4.938991740E-2,7.411528844E-3,7.265843872E-2
9.069919250E0,-5.465124547E-2,-3.888683021E-2,3.949259873E-3,6.719033301E-2
9.079899250E0,-5.091110244E-2,-1.787182689E-2,-6.348391762E-4,5.396059274E-2
9.089878250E0,-4.020307958E-2,4.012247548E-3,-4.986466374E-3,4.070934272E-2
9.099857250E0,-2.758582309E-2,1.867081970E-2,-2.878840780E-3,3.343448621E-2
9.109836250E0,-1.585433446E-2,2.628246322E-2,2.857813844E-3,3.082685346E-2
9.119815250E0,-1.193682291E-2,3.096536547E-2,8.355909958E-3,3.422225637E-2
9.129794250E0,-1.239702385E-2,3.015688248E-2,1.381828263E-2,3.541283237E-2
9.139773250E0,-1.552197710E-2,2.963623405E-2,1.503934152E-2,3.667996640E-2
9.149752250E0,-7.595887408E-3,1.351822820E-2,8.224093355E-3,1.755208565E-2
9.159731250E0,4.165697377E-3,-2.083634026E-3,-6.590805016E-3,8.070518952E-3
9.169710250E0,1.358610298E-2,-1.327242516E-2,-1.535230223E-2,2.442197059E-2
9.179689250E0,1.868685521E-2,-1.770578884E-2,-1.698535122E-2,3.084146028E-2
9.189668250E0,1.713795960E-2,-7.806959096E-3,-1.402430423E-2,2.348061708E-2
9.199647250E0,1.111442037E-2,6.822317839E-3,-1.083090808E-2,1.695237242E-2
9.209626250E0,1.178900152E-2,1.156853978E-2,-1.060447842E-2,1.962821011E-2
9.219605250E0,1.507427637E-2,1.452677883E-2,-1.163299102E-2,2.394968875E-2
9.229584250E0,2.124136873E-2,1.375175826E-2,-1.712281816E-2,3.055319136E-2
9.239564250E0,3.076749668E-2,1.316080242E-2,-1.853003353E-2,3.825189818E-2
9.249543250E0,4.227022454E-2,1.533361152E-2,-2.151271328E-2,4.984664841E-2
9.259522250E0,4.753262922E-2,1.566251181E-2,-2.549094334E-2,5.616452002E-2
9.269501250E0,4.120921716E-2,2.006230876E-2,-2.235584520E-2,5.099489804E-2
9.279480250E0,2.877757885E-2,2.353400737E-2,-1.952890120E-2,4.199257707E-2
9.289459250E0,1.851456985E-2,1.987006329E-2,-1.718885265E-2,3.214133425E-2
9.299438250E0,1.002947148E-2,2.056008764E-2,-1.938835904E-2,2.998692995E-2
9.309417250E0,6.176138297E-3,2.547021024E-2,-2.009945735E-2,3.302823761E-2
9.319396250E0,6.895458326E-3,3.238297626E-2,-2.004752681E-2,3.870539792E-2
9.329375250E0,1.558854245E-2,4.217201099E-2,-1.999483258E-2,4.920644771E-2
9.339354875E0,2.541427687E-2,4.360638931E-2,-1.722008549E-2,5.332854772E-2
9.349333875E0,3.069878742E-2,3.519053385E-2,-1.735723764E-2,4.982030630E-2
9.359312875E0,2.878290787E-2,2.356050909E-2,-1.223145053E-2,3.915560951E-2
9.369291875E0,1.640293561E-2,1.455862075E-2,-4.226908553E-3,2.233554321E-2
9.379270875E0,-5.784392357E-3,1.514584757E-2,4.273901228E-3,1.676669691E-2
9.389249875E0,-2.197026834E-2,1.742635667E-2,1.366517507E-2,3.119467274E-2
9.399228875E0,-2.600522339E-2,1.809507608E-2,2.295135148E-2,3.912119575E-2
9.409208875E0,-1.790897176E-2,8.436331525E-3,2.761860192E-2,3.398073176E-2
9.419187875E0,-3.875977127E-3,-8.817994967E-6,3.190203011E-2,3.213662710E-2
9.429166875E0,1.164413802E-2,-7.434881758E-3,3.334926441E-2,3.609760178E-2
9.439145875E0,2.379960567E-2,-1.222404465E-2,3.108238243E-2,4.101174216E-2
9.449124875E0,3.245969862E-2,-9.677194059E-3,2.739828080E-2,4.356542103E-2
9.459103875E0,3.982174024E-2,-1.314835902E-2,2.632129937E-2,4.951223224E-2
9.469082875E0,4.643141851E-2,-1.720033959E-2,2.333620191E-2,5.473852963E-2
9.479061875E0,5.518576130E-2,-1.620884426E-2,1.893213205E-2,6.055262593E-2
9.489040875E0,5.732268468E-2,-2.273379266E-2,1.077880524E-2,6.260110342E-2
9.499019875E0,5.745024979E-2,-2.682147920E-2,4.110782407E-3,6.353598571E-2
9.508998875E0,5.257372931E-2,-3.894979507E-2,-9.606506210E-4,6.543704149E-2
9.518977875E0,4.270672053E-2,-4.840747640E-2,-6.595899351E-3,6.488954953E-2
9.528956875E0,2.689073235E-2,-5.151326582E-2,-1.288599521E-2,5.952123078E-2
9.538935875E0,-4.583329428E-4,-4.449876398E-2,-8.353827521E-3,4.527843304E-2
9.548914875E0,-1.922057010E-2,-3.195793927E-2,-3.624323290E-5,3.729264687E-2
9.558893875E0,-1.444498915E-2,-3.247938678E-2,8.039841196E-4,3.555579654E-2
9.568873875E0,4.312710371E-3,-4.196665436E-2,-1.031466573E-2,4.343031059E-2
9.578852875E0,2.318546735E-2,-5.601775646E-2,-2.566272765E-2,6.583411369E-2
9.588831875E0,3.192358464E-2,-5.991365016E-2,-3.478734940E-2,7.628184849E-2
9.598810875E0,2.500655502E-2,-4.622580111E-2,-3.997438774E-2,6.603108478E-2
9.608789875E0,8.084836416E-3,-2.668810636E-2,-3.662462533E-2,4.603241012E-2
9.618768875E0,-1.850975677E-2,-1.412544399E-2,-2.796429396E-2,3.638874827E-2
9.628747875E0,-4.191363975E-2,-3.510278650E-3,-8.886739612E-3,4.298894503E-2
9.638726875E0,-6.392440200E-2,-8.436594158E-3,7.673595101E-3,6.493373048E-2
9.648705875E0,-7.717174292E-2,-1.630384475E-2,2.140932158E-2,8.172913990E-2
9.658684875E0,-8.397398889E-2,-2.210980281E-2,2.946911193E-2,9.170006951E-2
9.668663875E0,-8.058243990E-2,-2.250213921E-2,2.938445844E-2,8.867537588E-2
9.678642875E0,-7.331334800E-2,-1.588844508E-2,1.981731877E-2,7.758876081E-2
9.688621875E0,-6.197362766E-2,-4.661269486E-5,1.012451481E-2,6.279521079E-2
9.698600875E0,-4.723915458E-2,2.274338901E-2,4.012027755E-3,5.258227682E-2
9.708579875E0,-3.261359036E-2,4.470611736E-2,4.753233399E-3,5.554166394E-2
9.718558875E0,-1.017725654E-2,5.759901181E-2,7.574586198E-3,5.897963265E-2
9.728538875E0,1.141564175E-2,5.172231793E-2,1.048135478E-2,5.399420198E-2
9.738517875E0,2.478098124E-2,3.774551675E-2,9.591592476E-3,4.616080277E-2
9.748496875E0,3.090358339E-2,2.741910145E-2,5.205923226E-3,4.164060791E-2
9.758475875E0,3.174674138E-2,1.211311482E-2,-3.481042106E-3,3.415700211E-2
9.768454875E0,2.591573820E-2,-9.389326442E-4,-1.264744997E-2,2.885247080E-2
9.778433875E0,2.543157525E-2,-1.978026517E-2,-1.956101693E-2,3.769160773E-2
9.788412875E0,2.803614736E-2,-3.652841598E-2,-2.901384607E-2,5.442567405E-2
9.798391875E0,3.133314103E-2,-4.965886474E-2,-3.292816132E-2,6.732037122E-2
9.808370875E0,2.905667014E-2,-5.201649666E-2,-3.401798382E-2,6.860925031E-2
9.818349875E0,2.877437510E-2,-4.467043653E-2,-2.890471742E-2,6.048880269E-2
9.828328875E0,2.783324942E-2,-2.893099748E-2,-2.595498972E-2,4.780537501E-2
9.838307875E0,3.159869462E-2,-1.318053156E-2,-2.000708506E-2,3.965460082E-2
9.848286875E0,3.302904218E-2,2.414849820E-3,-1.835759357E-2,3.786489626E-2
9.858265875E0,3.649567813E-2,1.650350541E-2,-1.761750132E-2,4.375701733E-2
9.868244875E0,3.470712155E-2,2.736559324E-2,-1.077362429E-2,4.549209778E-2
9.878223875E0,2.836613357E-2,3.841451555E-2,-2.076805802E-3,4.779775791E-2
9.888203875E0,1.501066051E-2,3.612769395E-2,5.335228983E-3,3.948410905E-2
9.898182875E0,-1.633563545E-3,2.896858379E-2,1.302111149E-2,3.180246407E-2
9.908161875E0,-1.450382825E-2,1.303307991E-2,1.662087254E-2,2.562177999E-2
9.918140875E0,-2.086238936E-2,-7.487108931E-3,1.343972608E-2,2.592146460E-2
9.928119875E0,-2.425820567E-2,-1.735343039E-2,5.318042357E-3,3.029659491E-2
9.938098875E0,-2.128744870E-2,-1.959181763E-2,-2.479160903E-3,2.903689083E-2
9.948077875E0,-1.149553526E-2,-1.748991385E-2,-8.103369735E-3,2.244346271E-2
9.958056875E0,6.572148297E-3,-2.005160786E-2,-7.686318830E-3,2.245750672E-2
9.968035875E0,1.942215115E-2,-1.728082448E-2,-9.560108185E-3,2.769914292E-2
9.978014875E0,3.050702624E-2,-1.844568923E-2,-1.061099209E-2,3.719563488E-2
9.987993875E0,3.345170245E-2,-1.428605523E-2,-7.804914378E-3,3.720247920E-2
9.997972875E0,3.403946385E-2,-1.046521775E-2,-3.152904334E-3,3.575117743E-2
1.000795188E1,2.459215745E-2,-4.524920601E-3,-4.403053899E-4,2.500885810E-2
1.001793088E1,1.632890105E-2,1.193152624E-3,5.986701231E-3,1.743264795E-2
1.002790988E1,8.097362705E-3,8.665146306E-4,1.088883914E-2,1.359724046E-2
1.003788887E1,6.842215545E-3,3.584803315E-3,1.170190237E-2,1.402145668E-2
1.004786788E1,4.103912041E-3,8.051024750E-3,1.179858856E-2,1.486162123E-2
1.005784788E1,3.117477056E-3,1.601414382E-2,1.245825365E-2,2.052753150E-2
1.006782688E1,4.694618285E-3,2.257341519E-2,1.192007866E-2,2.595547706E-2
1.007780588E1,6.058156490E-3,3.269236162E-2,1.301117614E-2,3.570409603E-2
1.008778488E1,9.533303790E-3,3.231988847E-2,1.490247902E-2,3.684484975E-2
1.009776388E1,1.292803511E-2,2.627398260E-2,1.539995801E-2,3.308496577E-2
1.010774287E1,1.308784820E-2,1.844700798E-2,1.127380133E-2,2.527216790E-2
1.011772188E1,1.133522205E-2,9.094785899E-3,2.896828577E-3,1.481870458E-2
1.012770088E1,1.070803218E-2,-1.085917000E-3,-5.723544862E-3,1.219016549E-2
1.013767988E1,1.120178308E-2,-3.374104854E-3,-1.349731162E-2,1.786174540E-2
1.014765888E1,7.678423077E-3,5.897030234E-3,-1.845652983E-2,2.084170434E-2
1.015763788E1,7.138067856E-3,2.114043199E-2,-1.962618902E-2,2.971627791E-2
1.016761688E1,9.005476721E-3,3.730688617E-2,-2.021714486E-2,4.337782052E-2
1.017759587E1,9.168195538E-3,4.809401929E-2,-1.561919786E-2,5.139114557E-2
1.018757488E1,1.079538558E-2,5.117855594E-2,-6.349060684E-3,5.268866585E-2
1.019755388E1,8.430765010E-3,4.296296835E-2,2.559212968E-3,4.385708630E-2
1.020753388E1,2.915899036E-3,3.722474352E-2,6.521355361E-3,3.790398492E-2
1.021751288E1,-2.316413214E-3,2.641044371E-2,4.427311476E-3,2.687895820E-2
1.022749188E1,-1.088354923E-2,2.020251937E-2,-1.367860590E-3,2.298835521E-2
1.023747088E1,-1.737686805E-2,1.550976280E-2,-2.482659882E-3,2.342374619E-2
1.024744987E1,-1.928634569E-2,1.125278510E-2,-4.258564208E-3,2.273155674E-2
1.025742888E1,-9.391904809E-3,1.465710439E-2,-8.005099371E-3,1.916038102E-2
1.026740788E1,6.674099714E-4,1.238362119E-2,-8.726939559E-3,1.516439856E-2
1.027738688E1,1.207612548E-2,1.090982743E-2,-1.479147002E-3,1.634151208E-2
1.028736588E1,2.364193462E-2,6.449550390E-3,2.093328629E-3,2.459511735E-2
1.029734488E1,2.819620632E-2,8.379809558E-3,-1.822050894E-3,2.947146295E-2
1.030732388E1,2.842471190E-2,-6.725941785E-4,-9.080725722E-3,2.984754946E-2
1.031730288E1,2.592533454E-2,-1.435032301E-2,-1.662040129E-2,3.397488014E-2
1.032728188E1,1.988530159E-2,-3.020741232E-2,-2.259009331E-2,4.264065307E-2
1.033726058E1,1.137490384E-2,-2.993523516E-2,-2.239008993E-2,3.907458085E-2
1.034723958E1,3.666369477E-3,-2.673595026E-2,-1.843555272E-2,3.268214965E-2
1.035721858E1,5.860548001E-3,-1.639063470E-2,-9.090518579E-3,1.963762859E-2
1.036719858E1,1.527936850E-2,-3.492900170E-3,-5.041813012E-3,1.646448699E-2
1.037717758E1,2.568327263E-2,6.384231616E-3,-6.388307083E-3,2.722497702E-2
1.038715658E1,3.388711810E-2,1.009881496E-2,-6.985326763E-3,3.604327436E-2
1.039713558E1,3.397819772E-2,7.713155821E-3,-8.545673452E-3,3.587532896E-2
1.040711458E1,2.308908477E-2,2.565982286E-3,-1.027324144E-2,2.540136985E-2
1.041709358E1,8.353015408E-3,-8.663236164E-3,-1.228259690E-2,1.719554343E-2
1.042707258E1,-9.834804572E-3,-1.090521645E-2,-1.452237647E-2,2.065300329E-2
1.043705158E1,-2.175644413E-2,-6.772522815E-3,-1.495087892E-2,2.725323296E-2
1.044703058E1,-2.904071100E-2,1.575785107E-3,-1.683785953E-2,3.360594453E-2
1.045700958E1,-2.352530323E-2,3.238396486E-3,-1.410758775E-2,2.762157012E-2
1.046698858E1,-1.253549755E-2,1.608020393E-3,-9.949085303E-3,1.608442497E-2
1.047696758E1,5.986804608E-4,2.557970118E-3,-3.151366953E-3,4.102772610E-3
1.048694658E1,3.967289347E-3,3.695315681E-4,-1.071525738E-3,4.126027842E-3
1.049692558E1,2.838109154E-3,1.014016569E-3,6.989438552E-4,3.093802787E-3
1.050690458E1,-4.001142457E-3,-1.043505035E-4,5.673537496E-3,6.943274279E-3
1.051688358E1,-1.438427530E-2,-1.927018166E-3,9.658692405E-3,1.743304661E-2
1.052686258E1,-1.838431694E-2,-8.786123246E-3,1.026515290E-2,2.281561823E-2
1.053684258E1,-1.893878728E-2,-2.080710046E-2,5.095424131E-3,2.859329362E-2
1.054682158E1,-1.812944561E-2,-2.893292718E-2,-3.616845352E-4,3.414559838E-2
1.055680058E1,-1.552860346E-2,-2.958673052E-2,8.295474108E-4,3.342454633E-2
1.056677958E1,-1.188328769E-2,-2.379327267E-2,-8.037298685E-4,2.660786223E-2
1.057675858E1,-9.063533507E-3,-1.516143512E-2,4.381021427E-4,1.766942806E-2
1.058673758E1,-8.941823617E-3,-9.827250615E-3,2.275537932E-3,1.347995316E-2
1.059671658E1,-9.064329788E-3,-9.910874069E-3,6.009023637E-3,1.471379843E-2
1.060669558E1,-6.968162023E-3,-7.962187752E-3,4.248104990E-3,1.140167145E-2
1.061667458E1,-6.162289530E-3,-6.440457422E-3,-2.478773473E-3,9.251898291E-3
1.062665358E1,-4.017642699E-3,-7.314900402E-3,-5.029428285E-3,9.743940149E-3
1.063663258E1,-3.243728308E-3,-4.157190677E-3,-3.750045318E-3,6.470459609E-3
1.064661158E1,1.413959544E-4,-2.013656776E-3,-4.647436086E-3,5.066899309E-3
1.065659058E1,8.148722351E-3,-3.422202542E-3,-3.756874707E-3,9.603502161E-3
1.066656958E1,1.266601123E-2,-6.744747050E-3,-4.756734241E-3,1.511773706E-2
1.067654858E1,1.122737117E-2,-3.934579901E-3,-8.587957360E-3,1.467268871E-2
1.068652758E1,1.061643381E-2,-5.186295602E-4,-6.558785215E-3,1.248980812E-2
1.069650758E1,8.511205204E-3,2.388210734E-3,-1.031570602E-2,1.358521090E-2
1.070648658E1,-1.749545336E-4,2.569189528E-3,-9.958746843E-3,1.028630072E-2
1.071646558E1,-9.639030322E-3,4.614763893E-3,-4.304056987E-3,1.152093129E-2
1.072644458E1,-1.426707488E-2,5.966775585E-3,-6.144284271E-4,1.547673605E-2
1.073642358E1,-1.551290136E-2,-5.102984142E-4,-2.603809815E-3,1.573818092E-2
1.074640258E1,-2.128955908E-2,-3.757745959E-3,1.943512820E-3,2.170583384E-2
1.075638158E1,-3.364902362E-2,-3.650420345E-3,8.503677323E-3,3.489835078E-2
1.076636058E1,-4.611528292E-2,-2.122970298E-3,1.144581754E-2,4.756188664E-2
1.077633958E1,-5.500518158E-2,-5.238335580E-3,1.586107165E-2,5.748550908E-2
1.078631858E1,-5.336363614E-2,-1.180682424E-2,1.793342270E-2,5.752118227E-2
1.079629758E1,-4.473605752E-2,-2.248077281E-2,2.048100345E-2,5.409409848E-2
1.080627658E1,-2.988517284E-2,-2.821886912E-2,1.889157854E-2,4.523626720E-2
1.081625558E1,-1.069736481E-2,-2.348163910E-2,1.452932041E-2,2.961287119E-2
1.082623458E1,4.308203235E-3,-1.224473119E-2,6.069065072E-3,1.432925706E-2
1.083621358E1,1.083081774E-2,3.630905412E-3,2.024788875E-3,1.160128687E-2
1.084619358E1,1.241298392E-2,1.963719353E-2,5.925411824E-3,2.397523816E-2
1.085617258E1,8.954070508E-3,2.894121222E-2,7.294543087E-3,3.116054400E-2
1.086615158E1,3.399781417E-3,2.751588821E-2,1.030311547E-2,2.957764031E-2
1.087613058E1,-9.092841297E-3,1.744274795E-2,1.319078077E-2,2.368387460E-2
1.088610958E1,-1.983017847E-2,-2.935504541E-3,1.234924607E-2,2.354478803E-2
1.089608858E1,-2.841647528E-2,-2.008519694E-2,7.494835649E-3,3.559612008E-2
1.090606758E1,-3.498356044E-2,-2.858892642E-2,4.999697208E-3,4.545517778E-2
1.091604658E1,-3.895087168E-2,-3.225582838E-2,4.770931322E-3,5.079734889E-2
1.092602558E1,-3.819610551E-2,-2.403251827E-2,6.477931514E-3,4.559021833E-2
1.093600458E1,-3.237842768E-2,-1.498602610E-2,1.322877780E-2,3.805186092E-2
1.094598358E1,-2.523848228E-2,-3.701720387E-3,2.142466605E-2,3.331216050E-2
1.095596258E1,-1.509476826E-2,5.725603551E-3,2.095941082E-2,2.645621792E-2
1.096594158E1,-3.474886296E-3,6.405716762E-3,1.599780098E-2,1.757946751E-2
1.097592058E1,3.148395335E-3,6.472296081E-3,1.269921102E-2,1.459701922E-2
1.098589958E1,5.600892007E-3,3.144482616E-4,7.794309873E-3,9.603131541E-3
1.099587858E1,-2.186989645E-3,-1.194381621E-2,3.368668724E-3,1.260101576E-2
1.100585858E1,-1.243881788E-2,-2.152404562E-2,1.524441526E-3,2.490647811E-2
1.101583758E1,-2.628326043E-2,-2.347001806E-2,6.578854751E-3,3.584596012E-2
1.102581658E1,-3.054191917E-2,-2.102843300E-2,1.322637126E-2,3.936928648E-2
1.103579558E1,-2.453036979E-2,-2.491265163E-2,1.780967228E-2,3.923727411E-2
1.104577458E1,-1.153441425E-2,-3.367253765E-2,1.323166117E-2,3.797314000E-2
1.105575358E1,-4.154234193E-5,-3.472315520E-2,7.858734578E-3,3.560138961E-2
1.106573258E1,7.881352678E-3,-2.637789398E-2,-6.620014901E-4,2.753810555E-2
1.107571158E1,7.785478607E-3,-1.701341942E-2,-5.732660182E-3,1.956868698E-2
1.108569058E1,3.757447470E-3,-8.363473229E-3,-1.106297690E-2,1.436856130E-2
1.109566958E1,-2.021079650E-3,-4.939979874E-3,-1.181718428E-2,1.296664985E-2
1.110564858E1,-9.284048341E-3,-5.333786365E-3,-5.408105440E-3,1.199543392E-2
1.111562758E1,-9.936522692E-3,-6.719694939E-3,2.930518240E-3,1.234814644E-2
1.112560658E1,-1.276665367E-2,-1.064736582E-2,1.110190712E-2,1.999015224E-2
1.113558558E1,-1.856808364E-2,-9.795155376E-3,1.800774969E-2,2.765859447E-2
1.114556458E1,-2.304461040E-2,-8.202895522E-3,2.197728865E-2,3.288377684E-2
1.115554358E1,-2.697170712E-2,-1.073955651E-2,2.186783217E-2,3.634574449E-2
1.116552358E1,-3.196593374E-2,-1.024687197E-2,2.076927759E-2,3.947381659E-2
1.117550258E1,-2.912061103E-2,-1.041944511E-2,2.278582379E-2,3.841573361E-2
1.118548158E1,-1.505564060E-2,-1.285092998E-2,1.529298443E-2,2.501387791E-2
1.119546058E1,2.438132418E-3,-9.881504811E-3,6.640373729E-3,1.215249729E-2
1.120543958E1,1.718299091E-2,-1.312529854E-2,-4.156109644E-4,2.162640448E-2
1.121541858E1,1.985547319E-2,-1.752084680E-2,-5.529945251E-3,2.705180553E-2
1.122539758E1,1.231553219E-2,-2.186505869E-2,-9.545133449E-3,2.684888633E-2
1.123537658E1,1.096434193E-3,-2.781003341E-2,-5.763710942E-3,2.842218306E-2
1.124535558E1,-6.968454458E-3,-2.583385259E-2,-2.494163346E-3,2.687318641E-2
1.125533458E1,-4.414482042E-3,-2.336776629E-2,3.122176975E-3,2.398516504E-2
1.126531358E1,3.012560075E-3,-1.484474353E-2,8.234493434E-3,1.724090517E-2
1.127529258E1,1.852813736E-2,-3.880510572E-3,8.140750229E-3,2.060635947E-2
1.128527158E1,3.277074173E-2,-2.935778350E-3,1.882164390E-3,3.295577113E-2
1.129525058E1,4.068592191E-2,-1.049862243E-2,-2.139208838E-3,4.207304991E-2
1.130522958E1,3.842542320E-2,-2.313274518E-2,-6.301087327E-3,4.529172937E-2
1.131520858E1,3.267246112E-2,-2.927985229E-2,-6.333577912E-3,4.432734681E-2
1.132518858E1,2.652561292E-2,-3.317367285E-2,-8.675005287E-3,4.335154470E-2
1.133516688E1,2.150475606E-2,-2.687236667E-2,-1.571374014E-2,3.783517217E-2
1.134514588E1,2.085573785E-2,-2.462221123E-2,-2.260870114E-2,3.940010729E-2
1.135512488E1,1.568920538E-2,-2.225492708E-2,-3.109326586E-2,4.133066811E-2
1.136510388E1,1.070908923E-2,-1.523564383E-2,-3.729068488E-2,4.168218581E-2
1.137508288E1,6.878664717E-3,-4.840260837E-3,-4.396696389E-2,4.476424987E-2
1.138506188E1,2.376086311E-3,6.930712145E-3,-5.188788101E-2,5.240260254E-2
1.139504088E1,7.211980410E-4,1.243360154E-2,-5.396860838E-2,5.538704961E-2
1.140501988E1,2.402302343E-4,6.769654341E-3,-5.889098719E-2,5.927929067E-2
1.141499887E1,-1.443884708E-2,1.544356998E-2,-4.514028877E-2,4.984606132E-2
1.142497788E1,-4.243825749E-2,2.525918186E-2,-2.311142161E-2,5.452678035E-2
1.143495688E1,-5.159180984E-2,3.684473038E-2,-1.730413362E-2,6.571668007E-2
1.144493588E1,-4.561061412E-2,3.738588467E-2,-1.697549969E-2,6.136937414E-2
1.145491488E1,-3.443812206E-2,4.899353907E-2,-1.555763092E-2,6.187399293E-2
1.146489388E1,-1.821548305E-2,5.930041894E-2,-1.681426726E-2,6.427334668E-2
1.147487288E1,1.577395597E-3,5.613125861E-2,-1.657058857E-2,5.854733790E-2
1.148485288E1,1.320236549E-2,3.884808719E-2,-1.575535722E-2,4.395119582E-2
1.149483188E1,1.667139865E-2,1.113283914E-2,-6.231362000E-3,2.099298723E-2
1.150481088E1,1.212297752E-2,-4.433360416E-3,6.679958664E-3,1.453420505E-2
1.151478988E1,7.510116324E-3,-1.479465514E-2,1.803487912E-2,2.450592852E-2
1.152476888E1,1.281008590E-4,7.176618092E-4,3.060638905E-2,3.061506980E-2
1.153474788E1,-9.551957250E-3,1.973316446E-2,5.106452852E-2,5.557178907E-2
1.154472688E1,-2.313753963E-2,7.614386268E-3,7.466392219E-2,7.853678052E-2
1.155470587E1,-4.995956272E-2,-2.746477164E-2,9.172253311E-2,1.079967345E-1
1.156468488E1,-7.395412028E-2,-5.197584629E-2,1.142935008E-1,1.457178947E-1
1.157466388E1,-9.408974648E-2,-1.015053168E-1,1.318503916E-1,1.911563117E-1
1.158464288E1,-9.878305346E-2,-1.515060216E-1,1.423940361E-1,2.301917195E-1
1.159462188E1,-1.007950753E-1,-2.153369337E-1,1.315003633E-1,2.717020202E-1
1.160460088E1,-1.065024734E-1,-2.583129704E-1,1.026383862E-1,2.976625704E-1
1.161457988E1,-9.494355321E-2,-2.612957060E-1,7.558199763E-2,2.881013062E-1
1.162455888E1,-5.902043730E-2,-2.565232515E-1,6.260326505E-2,2.705674766E-1
1.163453788E1,-4.771049134E-3,-2.281565964E-1,6.845875829E-2,2.382536400E-1
1.164451788E1,6.205484644E-2,-1.704247296E-1,8.938179165E-2,2.021991521E-1
1.165449688E1,1.203775406E-1,-9.021778405E-2,1.205255911E-1,1.927600035E-1
1.166447588E1,1.522947252E-1,-1.533275284E-2,1.579710841E-1,2.199628151E-1
1.167445488E1,1.407720298E-1,4.080242291E-2,1.915974915E-1,2.412285241E-1
1.168443388E1,1.013439447E-1,5.354221910E-2,2.122323960E-1,2.412052119E-1
1.169441287E1,5.171141028E-2,6.052198820E-3,2.107399553E-1,2.170760876E-1
1.170439188E1,5.785722751E-3,-8.021752536E-2,1.829089671E-1,1.998099503E-1
1.171437088E1,-4.056765884E-2,-1.705218554E-1,1.400650889E-1,2.243694882E-1
1.172434988E1,-6.978759170E-2,-2.381106764E-1,9.150280058E-2,2.644612726E-1
1.173432888E1,-8.874184638E-2,-2.708281577E-1,4.974550009E-2,2.893054114E-1
1.174430788E1,-1.050278693E-1,-2.633166313E-1,3.008891270E-2,2.850821712E-1
1.175428688E1,-1.283614337E-1,-2.184429020E-1,3.680966794E-2,2.560252151E-1
1.176426588E1,-1.540044695E-1,-1.466545910E-1,6.868889183E-2,2.234795506E-1
1.177424488E1,-1.667681932E-1,-6.782929599E-2,9.986198694E-2,2.058758366E-1
1.178422388E1,-1.612368077E-1,-1.377177611E-2,1.203285009E-1,2.016579235E-1
1.179420388E1,-1.288037747E-1,3.032830730E-2,1.179425791E-1,1.772587672E-1
1.180418288E1,-7.907591760E-2,8.086894453E-2,8.842977136E-2,1.435709281E-1
1.181416188E1,-2.579830959E-2,1.121538952E-1,4.241913185E-2,1.226516683E-1
1.182414088E1,1.242764760E-2,1.149060950E-1,-1.129800081E-2,1.161270938E-1
1.183411988E1,2.686517499E-2,8.361794800E-2,-6.673648953E-2,1.103062006E-1
1.184409888E1,1.638962328E-2,1.705880836E-2,-1.123621911E-1,1.148254531E-1
1.185407788E1,-1.124466676E-2,-4.580484331E-2,-1.395986080E-1,1.473509334E-1
1.186405687E1,-3.563176468E-2,-1.184121445E-1,-1.608573496E-1,2.028944197E-1
1.187403588E1,-3.948615864E-2,-1.711182147E-1,-1.760360301E-1,2.486549497E-1
1.188401488E1,-2.009887807E-2,-1.890365779E-1,-1.902202368E-1,2.689284871E-1
1.189399388E1,5.139898974E-3,-1.648899615E-1,-1.804224700E-1,2.444736911E-1
1.190397288E1,2.106586844E-2,-8.556424081E-2,-1.340879947E-1,1.604512401E-1
1.191395188E1,2.520814911E-2,7.477444597E-4,-4.943888634E-2,5.549967014E-2
1.192393088E1,1.853721403E-2,8.442863822E-2,4.332231730E-2,9.668839864E-2
1.193390987E1,1.422502380E-2,1.162358373E-1,1.337531507E-1,1.777724009E-1
1.194388888E1,1.628975198E-2,9.304457903E-2,2.067381293E-1,2.272956308E-1
1.195386888E1,1.286119875E-2,2.018288523E-2,2.569701076E-1,2.580821487E-1
1.196384788E1,3.927111626E-3,-7.928886265E-2,2.785699368E-1,2.896607595E-1
1.197382688E1,-2.229863405E-2,-1.657979190E-1,2.780080140E-1,3.244605290E-1
1.198380588E1,-5.312394351E-2,-2.289313376E-1,2.577224672E-1,3.487873002E-1
1.199378488E1,-9.556034952E-2,-2.482605726E-1,2.250303179E-1,3.484303894E-1
1.200376387E1,-1.474879831E-1,-2.046086192E-1,1.873233318E-1,3.141773748E-1
1.201374288E1,-1.947313994E-1,-1.465362608E-1,1.536641717E-1,2.881073955E-1
1.202372188E1,-2.238759845E-1,-1.051126570E-1,1.322728842E-1,2.804732483E-1
1.203370088E1,-2.304790318E-1,-7.114057243E-2,1.253518611E-1,2.718357118E-1
1.204367988E1,-2.133133262E-1,-5.654983968E-2,1.320516914E-1,2.571733048E-1
1.205365888E1,-1.784086078E-1,-4.833292216E-2,1.423293650E-1,2.332881284E-1
1.206363788E1,-1.289587617E-1,-1.377010345E-2,1.475946605E-1,1.964794182E-1
1.207361688E1,-7.294423133E-2,3.423869982E-2,1.539087594E-1,1.737269572E-1
1.208359588E1,-1.610358804E-2,8.868863434E-2,1.638585925E-1,1.870150736E-1
1.209357488E1,3.305890039E-2,1.467250288E-1,1.935501695E-1,2.451179166E-1
1.210355388E1,5.588909611E-2,1.697018147E-1,2.254590541E-1,2.876700924E-1
1.211353388E1,4.918751866E-2,1.658785790E-1,2.491257638E-1,3.033129756E-1
1.212351288E1,1.347027160E-2,1.410475969E-1,2.684613168E-1,3.035578222E-1
1.213349188E1,-3.748106211E-2,1.048203632E-1,2.871851921E-1,3.080056381E-1
1.214347088E1,-9.144469351E-2,9.119728953E-2,3.000047803E-1,3.266220228E-1
1.215344988E1,-1.362582445E-1,9.405513108E-2,3.089831173E-1,3.505470634E-1
1.216342888E1,-1.622360200E-1,8.636401594E-2,3.148810565E-1,3.645947740E-1
1.217340788E1,-1.583278328E-1,8.988844603E-2,3.167849481E-1,3.653769817E-1
1.218338688E1,-1.419752538E-1,9.543690085E-2,3.097486496E-1,3.538494039E-1
1.219336588E1,-1.175732389E-1,1.099311486E-1,2.743690908E-1,3.180986041E-1
1.220334488E1,-8.414176106E-2,1.250810623E-1,2.137842476E-1,2.615890148E-1
1.221332388E1,-4.283719510E-2,1.233950183E-1,1.361757368E-1,1.886933680E-1
1.222330288E1,-2.850383287E-3,1.044208780E-1,5.838238820E-2,1.196676552E-1
1.223328188E1,3.369564191E-2,6.587481499E-2,-1.502791513E-2,7.550315070E-2
1.224326087E1,6.156589463E-2,2.810221165E-2,-6.807257980E-2,9.598942547E-2
1.225323988E1,6.294593960E-2,-1.166650653E-2,-1.025900766E-1,1.209256900E-1
1.226321988E1,3.861904889E-2,-3.295511007E-2,-1.240308657E-1,1.340191250E-1
1.227319888E1,2.684639767E-4,-2.783864364E-2,-1.287047118E-1,1.316813008E-1
1.228317788E1,-3.210918233E-2,-1.083775982E-2,-1.252232194E-1,1.297278355E-1
1.229315688E1,-4.303719848E-2,3.581127152E-3,-1.164515689E-1,1.242014204E-1
1.230313588E1,-2.861033380E-2,7.547946647E-3,-1.070588827E-1,1.110726207E-1
1.231311487E1,7.736755535E-3,1.168516744E-2,-8.975419402E-2,9.084170776E-2
1.232309388E1,5.473808572E-2,2.682476863E-2,-7.230389118E-2,9.457102580E-2
1.233307288E1,1.067834422E-1,4.101382568E-2,-5.198503658E-2,1.256474491E-1
1.234305213E1,1.603622437E-1,5.555560067E-2,-3.817078471E-2,1.739525302E-1
1.235303113E1,2.155088484E-1,7.184269279E-2,-3.347403184E-2,2.296213123E-1
1.236301013E1,2.573292851E-1,6.879585981E-2,-4.787119478E-2,2.706342229E-1
1.237298913E1,2.831968069E-1,6.202450395E-2,-7.802189887E-2,3.002247279E-1
1.238296813E1,2.821557820E-1,6.271433830E-2,-1.090091988E-1,3.089141935E-1
1.239294713E1,2.719460428E-1,7.879529893E-2,-1.332942843E-1,3.129388368E-1
1.240292613E1,2.645499110E-1,1.263995767E-1,-1.374802440E-1,3.238276176E-1
1.241290513E1,2.674197257E-1,1.684993654E-1,-1.271064430E-1,3.406778444E-1
1.242288513E1,2.812942564E-1,2.207712680E-1,-9.106897563E-2,3.689986041E-1
1.243286413E1,2.959592342E-1,2.752898932E-1,-2.068854868E-2,4.047275746E-1
1.244284313E1,2.922121584E-1,3.123404980E-1,7.124917954E-2,4.336138579E-1
1.245282213E1,2.622313499E-1,3.319176733E-1,1.625918746E-1,4.531784863E-1
1.246280113E1,2.128174901E-1,2.965118289E-1,2.179905027E-1,4.251239914E-1
1.247278013E1,1.507202983E-1,1.778134257E-1,2.091434896E-1,3.131696376E-1
1.248275913E1,8.562357724E-2,2.769165114E-2,1.393510550E-1,1.658823109E-1
1.249273813E1,1.875133067E-2,-1.137235314E-1,4.229054973E-2,1.227727355E-1
1.250271712E1,-1.359356195E-2,-1.992078871E-1,-4.145912454E-2,2.039299541E-1
1.251269613E1,-1.514458656E-2,-2.491128594E-1,-8.764126897E-2,2.645138318E-1
1.252267513E1,1.058846619E-2,-2.364792377E-1,-9.456478804E-2,2.549059525E-1
1.253265413E1,5.051484331E-2,-1.773727834E-1,-5.137976259E-2,1.914490368E-1
1.254263313E1,9.844721109E-2,-8.321060240E-2,1.723421179E-2,1.300495128E-1
1.255261213E1,1.508539617E-1,2.827065066E-2,1.086429507E-1,1.880410545E-1
1.256259113E1,1.942224801E-1,1.291123182E-1,1.945570409E-1,3.037182982E-1
1.257257012E1,2.171783894E-1,2.072015256E-1,2.542936206E-1,3.934007759E-1
1.258255013E1,2.122038752E-1,2.429357618E-1,2.831434309E-1,4.292067934E-1
1.259252913E1,1.752479821E-1,2.185121775E-1,2.790725231E-1,3.953996714E-1
1.260250813E1,1.064814329E-1,1.658203751E-1,2.533859313E-1,3.209970755E-1
1.261248713E1,2.191434614E-2,8.931814134E-2,2.213576883E-1,2.397023052E-1
1.262246613E1,-6.073578447E-2,-7.998203859E-3,1.776306033E-1,1.878974135E-1
1.263244513E1,-1.248604357E-1,-1.082896516E-1,1.284175217E-1,2.093032177E-1
1.264242412E1,-1.642198265E-1,-1.914869547E-1,7.711958885E-2,2.637855876E-1
1.265240313E1,-1.779950261E-1,-2.352083325E-1,4.992498457E-2,2.991616505E-1
1.266238213E1,-1.696963608E-1,-2.368643284E-1,5.390032381E-2,2.963221386E-1
1.267236113E1,-1.361266822E-1,-2.021063566E-1,9.222800285E-2,2.605445403E-1
1.268234013E1,-7.493550330E-2,-1.634261012E-1,1.465810537E-1,2.319685874E-1
1.269231913E1,9.489631280E-3,-1.580699533E-1,1.950098425E-1,2.512070897E-1
1.270229813E1,1.053131074E-1,-1.602764130E-1,2.223786116E-1,2.936522195E-1
1.271227713E1,1.922546625E-1,-1.583384275E-1,2.235421389E-1,3.346699879E-1
1.272225613E1,2.507387400E-1,-1.533961147E-1,1.972516626E-1,3.539894096E-1
1.273223613E1,2.776180208E-1,-1.329960376E-1,1.531097740E-1,3.438056346E-1
1.274221513E1,2.747122645E-1,-1.170820072E-1,1.032870412E-1,3.159798057E-1
1.275219413E1,2.547254860E-1,-1.073532104E-1,6.430102885E-2,2.838034661E-1
1.276217313E1,2.258475274E-1,-1.060290635E-1,4.890498146E-2,2.542458754E-1
1.277215213E1,1.846849173E-1,-1.106062382E-1,5.497139692E-2,2.221803617E-1
1.278213113E1,1.300203204E-1,-1.143328398E-1,7.681551576E-2,1.894146390E-1
1.279211013E1,7.816058397E-2,-1.110326499E-1,1.066887230E-1,1.726841331E-1
1.280208913E1,1.696221903E-2,-1.010548770E-1,1.373619437E-1,1.713712596E-1
1.281206813E1,-4.364866391E-2,-9.584812820E-2,1.635991335E-1,1.945681012E-1
1.282204713E1,-1.090290174E-1,-7.118769735E-2,1.871430278E-1,2.279858060E-1
1.283202613E1,-1.670254767E-1,-2.279619873E-2,2.054312229E-1,2.657426648E-1
1.284200513E1,-2.067097872E-1,2.619222365E-2,2.011620998E-1,2.896224424E-1
1.285198413E1,-2.217696905E-1,6.960521638E-2,1.723626703E-1,2.893709935E-1
1.286196313E1,-2.133380920E-1,1.068572327E-1,1.209878400E-1,2.675250775E-1
1.287194213E1,-1.909179986E-1,1.214705333E-1,7.289035618E-2,2.377346770E-1
1.288192112E1,-1.634927690E-1,1.220628172E-1,2.956898138E-2,2.061638706E-1
1.289190113E1,-1.349759102E-1,1.039466634E-1,7.884645020E-4,1.703643943E-1
1.290188013E1,-1.059943289E-1,6.695590913E-2,-7.117179688E-3,1.255728703E-1
1.291185913E1,-8.122000098E-2,3.383417800E-2,-4.832187202E-3,8.811804692E-2
1.292183813E1,-5.883267149E-2,1.111893822E-2,-5.534377415E-3,6.012938845E-2
1.293181713E1,-3.841688111E-2,-5.499453284E-3,-1.993408799E-2,4.362875892E-2
1.294179613E1,-2.072789520E-2,-1.506971288E-2,-4.621531442E-2,5.284502978E-2
1.295177512E1,-2.841040492E-3,-1.615921408E-2,-7.051239908E-2,7.239606436E-2
1.296175413E1,1.324867737E-2,-1.729520410E-2,-8.062177151E-2,8.351360116E-2
1.297173313E1,2.844094485E-2,-1.108018588E-2,-6.860452145E-2,7.508820298E-2
1.298171213E1,3.387273848E-2,-1.955573820E-2,-5.194776505E-2,6.502583796E-2
1.299169113E1,2.473836392E-2,-5.379946157E-2,-3.175248206E-2,6.719069007E-2
1.300167013E1,-1.271632500E-2,-9.140454233E-2,-2.959292382E-3,9.233229495E-2
1.301164913E1,-7.774113119E-2,-1.199674755E-1,3.029000759E-2,1.461279002E-1
1.302162813E1,-1.597294807E-1,-1.311100721E-1,6.914067268E-2,2.179077572E-1
1.303160713E1,-2.459924519E-1,-1.277188063E-1,1.156029776E-1,3.003138830E-1
1.304158613E1,-3.184149861E-1,-1.149547845E-1,1.499065757E-1,3.702359887E-1
1.305156613E1,-3.599235415E-1,-8.984197676E-2,1.681566983E-1,4.072999039E-1
1.306154513E1,-3.635054827E-1,-5.687062442E-2,1.598049104E-1,4.011335354E-1
1.307152413E1,-3.353478611E-1,-2.241065353E-2,1.308345050E-1,3.606634068E-1
1.308150313E1,-2.901364863E-1,1.197260898E-2,8.620314300E-2,3.029084117E-1
1.309148212E1,-2.321472019E-1,4.665149376E-2,2.756380104E-2,2.383871816E-1
1.310146113E1,-1.700936854E-1,6.903788447E-2,-3.088391759E-2,1.861502288E-1
1.311144013E1,-1.011103615E-1,7.336552441E-2,-7.823172957E-2,1.473974521E-1
1.312141913E1,-4.267183691E-2,6.246583164E-2,-1.113987789E-1,1.346571711E-1
1.313139813E1,-5.046960898E-3,5.026002973E-2,-1.237688959E-1,1.336797740E-1
1.314137713E1,5.687714554E-3,5.366855860E-2,-1.092815325E-1,1.218815721E-1
1.315135613E1,5.166267976E-3,8.794583380E-2,-7.425510883E-2,1.152171046E-1
1.316133513E1,4.784920253E-3,1.383036524E-1,-2.707550116E-2,1.410102071E-1
1.317131413E1,1.975880936E-2,1.955168694E-1,2.922905050E-2,1.986745937E-1
1.318129313E1,6.780594587E-2,2.405022830E-1,8.763265610E-2,2.647989366E-1
1.319127212E1,1.409938782E-1,2.605420649E-1,1.366926134E-1,3.262611099E-1
1.320125213E1,2.167056650E-1,2.422440499E-1,1.700628102E-1,3.668308662E-1
1.321123113E1,2.784611881E-1,2.081457227E-1,1.765273660E-1,3.899066377E-1
1.322121013E1,3.134979904E-1,1.259651482E-1,1.442513615E-1,3.673644836E-1
1.323118913E1,3.059167862E-1,5.090022832E-2,7.178114355E-2,3.183212935E-1
1.324116813E1,2.588400841E-1,-2.794482186E-2,-1.470919512E-2,2.607593960E-1
1.325114713E1,1.800328791E-1,-1.040691510E-1,-7.748629153E-2,2.219151890E-1
1.326112612E1,8.135851473E-2,-1.442322582E-1,-9.922149032E-2,1.930467725E-1
1.327110513E1,-1.216557436E-2,-1.608826071E-1,-7.223008573E-2,1.767721691E-1
1.328108413E1,-7.835336775E-2,-1.535412371E-1,-1.980802603E-2,1.735123040E-1
1.329106313E1,-1.016549617E-1,-1.243721619E-1,4.789352044E-2,1.676184811E-1
1.330104213E1,-7.624069601E-2,-7.786893845E-2,1.211260632E-1,1.629347676E-1
1.331102113E1,-9.148746729E-3,-2.174468338E-2,1.775741577E-1,1.791343415E-1
1.332100013E1,7.965276390E-2,2.769209631E-2,2.121894062E-1,2.283325625E-1
1.333097912E1,1.645796299E-1,6.344024092E-2,2.294208556E-1,2.893873663E-1
1.334095833E1,2.195041329E-1,7.415705174E-2,2.178505212E-1,3.180254428E-1
1.335093833E1,2.331112772E-1,6.566955894E-2,1.842177212E-1,3.042852730E-1
1.336091733E1,2.104240954E-1,2.844886295E-2,1.534875631E-1,2.620039499E-1
1.337089633E1,1.628557742E-1,-2.229660563E-2,1.423233151E-1,2.174283050E-1
1.338087533E1,1.041959301E-1,-6.574302167E-2,1.538251340E-1,1.970814771E-1
1.339085433E1,4.741333798E-2,-8.881851286E-2,1.876629889E-1,2.129651386E-1
1.340083333E1,8.998552337E-3,-8.448266983E-2,2.316350639E-1,2.467247419E-1
1.341081233E1,-3.561448073E-3,-4.394109920E-2,2.706184089E-1,2.741857534E-1
1.342079133E1,1.177063305E-2,-1.483463217E-3,2.891975045E-1,2.894407454E-1
1.343077033E1,3.035976179E-2,3.566150740E-2,2.827814221E-1,2.866335482E-1
1.344074933E1,2.642842755E-2,8.182133734E-2,2.506547868E-1,2.649924814E-1
1.345072833E1,-1.407665387E-2,1.307406723E-1,2.070969343E-1,2.453169701E-1
1.346070733E1,-7.464254647E-2,1.853328496E-1,1.584010422E-1,2.549718907E-1
1.347068633E1,-1.419613957E-1,2.407335192E-1,1.001270860E-1,2.968688237E-1
1.348066533E1,-1.910191923E-1,3.111608028E-1,2.855749615E-2,3.662306755E-1
1.349064433E1,-2.081867307E-1,3.631553054E-1,-3.615971282E-2,4.201559419E-1
1.350062333E1,-1.982518286E-1,3.804985285E-1,-8.831171691E-2,4.380432365E-1
1.351060333E1,-1.721118391E-1,3.768326938E-1,-1.254710704E-1,4.328606632E-1
1.352058233E1,-1.425805986E-1,3.404121399E-1,-1.564066261E-1,4.008399740E-1
1.353056133E1,-1.163716316E-1,2.727489173E-1,-1.869632155E-1,3.505560904E-1
1.354054033E1,-9.672228247E-2,1.833716184E-1,-2.194841504E-1,3.019166154E-1
1.355051933E1,-8.157502115E-2,6.979713589E-2,-2.543470263E-1,2.760770437E-1
1.356049833E1,-6.986003369E-2,-1.295872405E-2,-2.848932445E-1,2.936196751E-1
1.357047733E1,-5.229968578E-2,-4.921633005E-2,-2.947762609E-1,3.033983326E-1
1.358045633E1,-3.593829647E-2,-6.491089612E-2,-2.885944843E-1,2.979794657E-1
1.359043533E1,-2.491573803E-2,-5.649130791E-2,-2.571031451E-1,2.644127249E-1
1.360041433E1,-2.613040246E-2,-4.813210666E-2,-2.078560442E-1,2.149503029E-1
1.361039333E1,-5.102350190E-2,-3.476649895E-2,-1.500713080E-1,1.622760139E-1
1.362037233E1,-9.275843948E-2,-2.008664422E-2,-8.113294095E-2,1.248605441E-1
1.363035133E1,-1.430559754E-1,-6.466173101E-3,-5.440305918E-3,1.433053399E-1
1.364033033E1,-1.777548194E-1,-6.898712367E-3,5.619430915E-2,1.865533930E-1
1.365030933E1,-1.929444224E-1,-3.096570075E-2,9.746345133E-2,2.183702111E-1
1.366028933E1,-1.880377978E-1,-6.179035828E-2,1.151110232E-1,2.289690141E-1
1.367026833E1,-1.734857559E-1,-8.052942157E-2,1.113232076E-1,2.213033027E-1
1.368024733E1,-1.484943926E-1,-1.004302502E-1,9.180687368E-2,2.014083460E-1
1.369022633E1,-1.145452112E-1,-1.271180511E-1,5.742919445E-2,1.804929824E-1
1.370020533E1,-8.545392007E-2,-1.424658746E-1,7.977269590E-3,1.663205781E-1
1.371018433E1,-7.514109462E-2,-1.443649828E-1,-3.975057229E-2,1.675336992E-1
1.372016333E1,-8.240965754E-2,-1.331617236E-1,-8.139614016E-2,1.764900222E-1
1.373014233E1,-9.569004923E-2,-1.094843596E-1,-1.120363399E-1,1.835634822E-1
1.374012133E1,-1.096319631E-1,-7.981628180E-2,-1.307524145E-1,1.883772812E-1
1.375010033E1,-1.251243800E-1,-4.619414732E-2,-1.319276690E-1,1.876030905E-1
1.376007933E1,-1.370220184E-1,1.616382785E-2,-1.139213592E-1,1.789256241E-1
1.377005833E1,-1.302914172E-1,7.894545794E-2,-1.003709286E-1,1.824350900E-1
1.378003733E1,-1.025303602E-1,1.194397435E-1,-9.155732393E-2,1.821018140E-1
1.379001633E1,-6.916999817E-2,1.246664673E-1,-8.730532229E-2,1.671778574E-1
1.379999533E1,-3.916044906E-2,1.126296148E-1,-8.408749849E-2,1.459098293E-1
1.380997533E1,-2.600629814E-2,8.830696344E-2,-9.090199322E-2,1.293739530E-1
1.381995433E1,-3.452627733E-2,5.651902780E-2,-9.645239264E-2,1.170022580E-1
1.382993333E1,-5.652904510E-2,2.664315142E-2,-9.642869234E-2,1.149081510E-1
1.383991233E1,-7.803965360E-2,2.974320203E-3,-8.753083646E-2,1.173059310E-1
1.384989133E1,-8.865687996E-2,-1.623053476E-2,-8.073870838E-2,1.210050067E-1
1.385987033E1,-8.590051532E-2,-2.587499097E-2,-6.579506397E-2,1.112537826E-1
1.386984933E1,-6.882246584E-2,-3.119172528E-2,-4.717237875E-2,8.907687044E-2
1.387982833E1,-4.810227454E-2,-4.315245152E-2,-3.819039464E-2,7.506310099E-2
1.388980733E1,-2.128930390E-2,-7.313138247E-2,-4.769708216E-2,8.986904477E-2
1.389978633E1,8.050996810E-3,-1.037369221E-1,-5.649990588E-2,1.183993536E-1
1.390976533E1,3.707705438E-2,-1.431114972E-1,-5.833535641E-2,1.589296146E-1
1.391974433E1,6.807439774E-2,-1.630803049E-1,-4.490812123E-2,1.823349906E-1
1.392972333E1,9.626635909E-2,-1.589641273E-1,-1.553585380E-2,1.864890571E-1
1.393970233E1,1.143300459E-1,-1.301755607E-1,2.194517292E-2,1.746385599E-1
1.394968133E1,1.270839274E-1,-7.024245709E-2,5.936524644E-2,1.568711569E-1
1.395966033E1,1.388529539E-1,-7.721171249E-3,8.774699271E-2,1.644362917E-1
1.396964033E1,1.501599401E-1,3.290401772E-2,9.290873259E-2,1.796182468E-1
1.397961933E1,1.748663336E-1,5.858366564E-2,7.272986323E-2,1.982420579E-1
1.398959833E1,2.079848796E-1,2.993710898E-2,5.142377317E-2,2.163292516E-1
1.399957733E1,2.306904644E-1,-3.055988625E-2,4.234324396E-2,2.365268427E-1
1.400955633E1,2.267359495E-1,-8.542526513E-2,5.182569474E-2,2.477752396E-1
1.401953533E1,1.990462691E-1,-1.122100502E-1,7.725223899E-2,2.412020336E-1
1.402951433E1,1.609923691E-1,-1.140707955E-1,1.048953161E-1,2.234585344E-1
1.403949333E1,1.205125749E-1,-1.106607169E-1,1.277421713E-1,2.075744139E-1
1.404947233E1,8.102215827E-2,-1.132154912E-1,1.525417864E-1,2.065219944E-1
1.405945133E1,5.043363199E-2,-1.153082997E-1,1.776575893E-1,2.177194852E-1
1.406943033E1,3.767416254E-2,-1.071614176E-1,1.937827617E-1,2.246211715E-1
1.407940933E1,4.940058291E-2,-8.650764078E-2,1.877508461E-1,2.125426304E-1
1.408938833E1,7.981228083E-2,-5.880836397E-2,1.594185382E-1,1.877303763E-1
1.409936733E1,1.188760549E-1,-1.955904998E-2,1.155933887E-1,1.669607869E-1
1.410934633E1,1.594040394E-1,2.449203096E-2,6.560612470E-2,1.741082162E-1
1.411932633E1,1.994638443E-1,8.419711888E-2,9.478177875E-3,2.167136725E-1
1.412930533E1,2.309429348E-1,1.533748507E-1,-4.849910364E-2,2.814438612E-1
1.413928433E1,2.508394122E-1,2.087811232E-1,-1.045037806E-1,3.426820805E-1
1.414926333E1,2.525086999E-1,2.267420143E-1,-1.394673735E-1,3.669110694E-1
1.415924233E1,2.284305245E-1,2.090804130E-1,-1.378726214E-1,3.389749008E-1
1.416922133E1,1.805410385E-1,1.551303715E-1,-8.992427588E-2,2.544540708E-1
1.417920033E1,1.156853437E-1,5.778206140E-2,-2.489158884E-2,1.316869643E-1
1.418917933E1,4.399278015E-2,-4.594966024E-2,3.264307603E-2,7.150039437E-2
1.419915833E1,-7.610762492E-3,-1.434918046E-1,7.727966458E-2,1.631562694E-1
1.420913733E1,-3.016800247E-2,-2.464432269E-1,8.955071867E-2,2.639388257E-1
1.421911633E1,-2.796850726E-2,-3.038892150E-1,5.138553306E-2,3.094694902E-1
1.422909533E1,-2.768514864E-2,-3.025030494E-1,-2.769490331E-2,3.050271627E-1
1.423907433E1,-4.800719395E-2,-2.500022352E-1,-1.115992144E-1,2.779571782E-1
1.424905333E1,-8.994080126E-2,-1.538397223E-1,-1.662635207E-1,2.437202622E-1
1.425903233E1,-1.386745274E-1,-6.265540421E-2,-1.695240736E-1,2.278041610E-1
1.426901233E1,-1.789657474E-1,-7.723900490E-5,-1.254050881E-1,2.185295879E-1
1.427899133E1,-1.958347410E-1,2.320507541E-2,-5.617480725E-2,2.050495800E-1
1.428897033E1,-1.873997152E-1,1.319638360E-2,8.904593997E-3,1.880746915E-1
1.429894933E1,-1.473990381E-1,3.749746131E-3,4.278973490E-2,1.535301222E-1
1.430892833E1,-7.044991851E-2,2.460203134E-2,3.681360185E-2,8.320872698E-2
1.431890733E1,2.952647954E-2,7.734821737E-2,-3.836526768E-3,8.288111161E-2
1.432888633E1,1.292040795E-1,1.414712816E-1,-6.430253386E-2,2.020956050E-1
1.433886538E1,1.895739138E-1,2.055964917E-1,-1.071711332E-1,2.994892953E-1
1.434884437E1,1.879240870E-1,2.311316729E-1,-1.143243834E-1,3.190726835E-1
1.435882338E1,1.117025688E-1,2.014148980E-1,-8.982612193E-2,2.472127772E-1
1.436880238E1,-3.088813089E-2,1.329532713E-1,-3.375273570E-2,1.406054627E-1
1.437878138E1,-2.232101709E-1,5.172993615E-2,3.929310292E-2,2.324708898E-1
1.438876038E1,-4.063496292E-1,-3.431626409E-2,1.160672382E-1,4.239920175E-1
1.439873938E1,-5.390197635E-1,-1.248760074E-1,1.726269424E-1,5.796001931E-1
1.440871838E1,-6.002541184E-1,-2.200555056E-1,1.874354482E-1,6.662292995E-1
1.441869837E1,-5.860317349E-1,-2.836470604E-1,1.586222202E-1,6.701118250E-1
1.442867738E1,-5.254371166E-1,-3.154630661E-1,9.397211671E-2,6.200256997E-1
1.443865638E1,-4.373559952E-1,-3.313679099E-1,8.277368732E-3,5.487745193E-1
1.444863538E1,-3.497635722E-1,-3.304624259E-1,-8.072600514E-2,4.879105034E-1
1.445861438E1,-2.827952206E-1,-3.037482202E-1,-1.405232847E-1,4.381585462E-1
1.446859338E1,-2.516921461E-1,-2.476487309E-1,-1.525911242E-1,3.846594357E-1
1.447857238E1,-2.489650846E-1,-1.774299890E-1,-1.212930977E-1,3.289027666E-1
1.448855137E1,-2.643264532E-1,-1.211677715E-1,-6.928742677E-2,2.989161257E-1
1.449853038E1,-2.904706895E-1,-7.299304008E-2,-6.406046450E-3,2.995700967E-1
1.450850938E1,-3.126452267E-1,-2.732461877E-2,5.394943804E-2,3.184402840E-1
1.451848838E1,-3.207924068E-1,2.215310372E-2,1.084152535E-1,3.393411196E-1
1.452846738E1,-3.145299852E-1,7.208657265E-2,1.435420811E-1,3.531712256E-1
1.453844638E1,-2.992229164E-1,1.130328998E-1,1.523305327E-1,3.542815001E-1
1.454842538E1,-2.786563933E-1,1.427918673E-1,1.396954358E-1,3.428610763E-1
1.455840438E1,-2.608685791E-1,1.591051668E-1,1.104178280E-1,3.248983940E-1
1.456838438E1,-2.543084025E-1,1.537247747E-1,6.492198259E-2,3.041692519E-1
1.457836338E1,-2.460691780E-1,1.325059533E-1,9.193909355E-3,2.796290328E-1
1.458834238E1,-2.351733744E-1,1.231678501E-1,-4.059921205E-2,2.685612246E-1
1.459832138E1,-2.103023529E-1,1.326188594E-1,-7.625897974E-2,2.600582118E-1
1.460830038E1,-1.552441567E-1,1.396599859E-1,-1.038711667E-1,2.332270978E-1
1.461827938E1,-7.698293030E-2,1.493385583E-1,-1.268223822E-1,2.105048531E-1
1.462825838E1,9.372998029E-3,1.575826406E-1,-1.539003402E-1,2.204664520E-1
1.463823738E1,7.676962763E-2,1.593068093E-1,-1.799131036E-1,2.522715998E-1
1.464821638E1,1.159473956E-1,1.514986902E-1,-1.961980611E-1,2.736591509E-1
1.465819537E1,1.283840686E-1,1.202181056E-1,-2.049586177E-1,2.700794271E-1
1.466817438E1,1.226223260E-1,7.841978967E-2,-2.066907287E-1,2.527982507E-1
1.467815338E1,1.179436818E-1,2.823051438E-2,-2.025200725E-1,2.360551922E-1
1.468813238E1,1.146722585E-1,-1.333450805E-2,-2.020646781E-1,2.327180055E-1
1.469811138E1,1.243419126E-1,-2.717558667E-2,-2.042917460E-1,2.406959518E-1
1.470809038E1,1.477154046E-1,-2.003192343E-2,-2.114886791E-1,2.587442368E-1
1.471807038E1,1.798965484E-1,-2.324646804E-3,-2.212286144E-1,2.851495607E-1
1.472804938E1,2.197853774E-1,1.721576601E-2,-2.357886434E-1,3.227975822E-1
1.473802838E1,2.504652441E-1,2.155461721E-2,-2.450060993E-1,3.510347970E-1
1.474800738E1,2.643054128E-1,3.648802638E-2,-2.331664860E-1,3.543378861E-1
1.475798638E1,2.563655078E-1,5.085639283E-2,-1.989322752E-1,3.284565366E-1
1.476796538E1,2.476556301E-1,6.909718364E-2,-1.680145711E-1,3.071426835E-1
1.477794438E1,2.532895505E-1,8.229326457E-2,-1.544836760E-1,3.078846926E-1
1.478792338E1,2.878730893E-1,6.901740283E-2,-1.556442678E-1,3.344539663E-1
1.479790237E1,3.320229948E-1,3.753358871E-2,-1.635675281E-1,3.720246975E-1
1.480788138E1,3.668486178E-1,2.605216950E-2,-1.695047915E-1,4.049549336E-1
1.481786038E1,3.750497699E-1,3.156614304E-2,-1.791178584E-1,4.168236539E-1
1.482783938E1,3.473819196E-1,3.759660572E-2,-1.773231477E-1,3.918305776E-1
1.483781838E1,2.956961095E-1,3.589353338E-2,-1.698880941E-1,3.429088792E-1
1.484779738E1,2.306614220E-1,1.002411917E-2,-1.548098177E-1,2.779770750E-1
1.485777638E1,1.629532427E-1,-1.207899489E-2,-1.277354509E-1,2.074030058E-1
1.486775637E1,1.015993431E-1,-2.611225657E-2,-8.185583353E-2,1.330588364E-1
1.487773538E1,5.495381355E-2,-4.497735575E-2,-2.253919281E-2,7.450435804E-2
1.488771438E1,2.666704729E-2,-5.279692635E-2,4.722417518E-2,7.568863564E-2
1.489769338E1,1.114479825E-2,-4.960190505E-2,1.232856661E-1,1.333563309E-1
1.490767238E1,1.114772819E-2,-4.524870217E-2,1.809428334E-1,1.868476006E-1
1.491765138E1,3.467249870E-2,-5.736701190E-2,2.093223929E-1,2.197931309E-1
1.492763038E1,6.587009877E-2,-8.857606351E-2,2.027252167E-1,2.308291629E-1
1.493760938E1,9.093925357E-2,-1.052274778E-1,1.666606218E-1,2.170680372E-1
1.494758838E1,1.086806953E-1,-9.689151496E-2,1.207229570E-1,1.891388155E-1
1.495756738E1,1.236399338E-1,-5.881620571E-2,6.498666108E-2,1.515567398E-1
1.496754638E1,1.350161582E-1,-4.542579409E-3,1.333092339E-2,1.357487073E-1
1.497752538E1,1.461287141E-1,4.466854408E-2,-3.707965091E-2,1.572379739E-1
1.498750438E1,1.509916484E-1,8.495684713E-2,-7.138836384E-2,1.873831430E-1
1.499748338E1,1.437798291E-1,1.243256703E-1,-8.858507872E-2,2.097065276E-1
1.500746238E1,1.279159039E-1,1.518140137E-1,-9.502194077E-2,2.200889422E-1
1.501744238E1,1.029713973E-1,1.520627886E-1,-9.952215850E-2,2.088800143E-1
1.502742138E1,6.425250322E-2,1.461095661E-1,-1.013176665E-1,1.890546456E-1
1.503740038E1,1.751614921E-2,1.375711858E-1,-1.079086959E-1,1.757183352E-1
1.504737938E1,-3.313264623E-2,1.239733621E-1,-1.185709238E-1,1.747175742E-1
1.505735838E1,-7.824286073E-2,1.121206954E-1,-1.374524832E-1,1.938715573E-1
1.506733738E1,-1.245597675E-1,1.019514129E-1,-1.572506875E-1,2.250266762E-1
1.507731638E1,-1.713003665E-1,9.812334180E-2,-1.660524160E-1,2.579639716E-1
1.508729538E1,-2.205054611E-1,9.785410017E-2,-1.573579907E-1,2.880271177E-1
1.509727438E1,-2.788390815E-1,9.066426754E-2,-1.325579733E-1,3.217807624E-1
1.510725337E1,-3.427224755E-1,9.578739107E-2,-1.026781052E-1,3.703737475E-1
1.511723238E1,-3.978642523E-1,8.531387895E-2,-7.140189409E-2,4.131254673E-1
1.512721138E1,-4.369003177E-1,5.805296823E-2,-4.140324518E-2,4.426807692E-1
1.513719038E1,-4.551027715E-1,2.784315497E-2,-1.183848269E-2,4.561073597E-1
1.514716938E1,-4.488033354E-1,9.969882667E-3,1.357180253E-2,4.491191671E-1
1.515714838E1,-4.197607934E-1,-3.676328808E-3,3.215476498E-2,4.210066128E-1
1.516712838E1,-3.725328147E-1,-1.125302166E-2,3.687122464E-2,3.745221165E-1
1.517710737E1,-3.183244169E-1,-1.581098512E-2,3.615129367E-2,3.207605613E-1
1.518708638E1,-2.712743580E-1,-2.802371234E-2,2.840655297E-2,2.741934318E-1
1.519706538E1,-2.328207195E-1,-4.752220586E-2,1.950034127E-2,2.384200302E-1
1.520704438E1,-2.074032426E-1,-6.148969010E-2,7.685760502E-3,2.164628327E-1
1.521702338E1,-1.963953376E-1,-6.880481541E-2,-8.064983413E-3,2.082553125E-1
1.522700238E1,-1.897901744E-1,-6.134796515E-2,-2.586768381E-2,2.011293618E-1
1.523698138E1,-1.766698211E-1,-2.925310098E-2,-4.317034036E-2,1.842054503E-1
1.524696037E1,-1.440061629E-1,-1.828401349E-3,-6.249743700E-2,1.569937821E-1
1.525693938E1,-9.923203290E-2,-5.005246028E-3,-8.312202990E-2,1.295427369E-1
1.526691838E1,-5.565872043E-2,-4.037149251E-2,-1.025625765E-1,1.234780656E-1
1.527689738E1,-2.600203827E-2,-8.456388116E-2,-1.233526096E-1,1.517992829E-1
1.528687638E1,-1.436029561E-2,-1.169929281E-1,-1.329226792E-1,1.776569783E-1
1.529685538E1,-1.459515467E-2,-1.337953955E-1,-1.287442446E-1,1.862506561E-1
1.530683538E1,-1.510062255E-2,-1.437026262E-1,-1.103678867E-1,1.818228369E-1
1.531681437E1,-1.092534233E-2,-1.291099489E-1,-8.025851101E-2,1.524144698E-1
1.532679338E1,7.277097553E-3,-9.533947706E-2,-4.734157398E-2,1.066948765E-1
1.533677238E1,4.506842420E-2,-5.639485642E-2,-1.420642901E-2,7.357557554E-2
1.534675083E1,9.981422871E-2,-2.036175691E-2,6.997659802E-3,1.021099831E-1
1.535672983E1,1.563560814E-1,1.023189817E-2,2.754967660E-2,1.590939993E-1
1.536670883E1,1.946049333E-1,3.308528289E-2,5.391603708E-2,2.046280896E-1
1.537668783E1,2.103684545E-1,4.398552701E-2,9.040036798E-2,2.331562561E-1
1.538666683E1,2.036431730E-1,4.966684803E-2,1.276092529E-1,2.454006095E-1
1.539664583E1,1.849677265E-1,2.950577252E-2,1.541691869E-1,2.425938760E-1
1.540662483E1,1.765779704E-1,-1.238734834E-2,1.438643485E-1,2.281012424E-1
1.541660383E1,1.803538203E-1,-5.599768087E-2,1.005453169E-1,2.139453237E-1
1.542658283E1,1.927665472E-1,-8.427778631E-2,4.189239070E-2,2.145149398E-1
1.543656183E1,1.974970996E-1,-6.638555229E-2,-1.064775418E-2,2.086277081E-1
1.544654183E1,1.876764297E-1,3.794336924E-3,-4.028713703E-2,1.919893036E-1
1.545652083E1,1.709925234E-1,9.018310159E-2,-4.081401974E-2,1.975783872E-1
1.546649983E1,1.539229900E-1,1.653425694E-1,-2.249919623E-2,2.270168846E-1
1.547647883E1,1.362057924E-1,2.118931264E-1,1.101628412E-2,2.521350301E-1
1.548645783E1,1.286277622E-1,2.252976149E-1,5.002094060E-2,2.642086505E-1
1.549643683E1,1.350840777E-1,2.089472264E-1,9.042257816E-2,2.647317399E-1
1.550641583E1,1.601284444E-1,1.664911062E-1,1.227341816E-1,2.615799810E-1
1.551639483E1,1.932778656E-1,1.205957681E-1,1.490484029E-1,2.722408842E-1
1.552637383E1,2.187645882E-1,7.595399767E-2,1.703097373E-1,2.874584517E-1
1.553635283E1,2.222788632E-1,4.134933650E-2,1.833748370E-1,2.911082127E-1
1.554633183E1,1.935875565E-1,1.210676413E-2,1.883645356E-1,2.703773549E-1
1.555631083E1,1.360262930E-1,-7.430702448E-3,1.885641664E-1,2.326259070E-1
1.556628983E1,5.027144775E-2,-2.453778312E-2,1.868746579E-1,1.950678318E-1
1.557626883E1,-5.421527848E-2,-3.928735852E-2,1.896708906E-1,2.011413426E-1
1.558624783E1,-1.504507363E-1,-6.209173799E-2,1.967964470E-1,2.553813806E-1
1.559622783E1,-2.120517790E-1,-1.044938564E-1,1.997784525E-1,3.095098595E-1
1.560620683E1,-2.227651477E-1,-1.523146480E-1,1.813874543E-1,3.251545349E-1
1.561618583E1,-1.838307828E-1,-1.835204810E-1,1.446206272E-1,2.973022863E-1
1.562616483E1,-1.140280068E-1,-1.939379722E-1,9.354333580E-2,2.436486796E-1
1.563614383E1,-3.591138870E-2,-1.695999950E-1,3.281865641E-2,1.764393674E-1
1.564612283E1,2.257189527E-2,-1.223312914E-1,-1.178157050E-2,1.249529540E-1
1.565610183E1,4.958939180E-2,-5.763139948E-2,-3.682990745E-2,8.448034131E-2
1.566608083E1,3.706454486E-2,1.510086190E-2,-2.838342637E-2,4.906562348E-2
1.567605983E1,-8.526350372E-3,5.352041498E-2,1.099933498E-2,5.530026076E-2
1.568603883E1,-6.497231871E-2,4.488218576E-2,7.433356345E-2,1.084494880E-1
1.569601783E1,-1.149444133E-1,2.767542843E-3,1.426950097E-1,1.832532216E-1
1.570599683E1,-1.447497159E-1,-5.199769884E-2,1.947715282E-1,2.481777370E-1
1.571597583E1,-1.613140255E-1,-8.435323089E-2,2.252116948E-1,2.895824406E-1
1.572595483E1,-1.643351167E-1,-9.813509136E-2,2.281563580E-1,2.978117702E-1
1.573593483E1,-1.593848467E-1,-9.357167035E-2,2.066659480E-1,2.772543975E-1
1.574591383E1,-1.537171006E-1,-8.407857269E-2,1.793954372E-1,2.507605956E-1
1.575589283E1,-1.555493772E-1,-7.913342118E-2,1.488431990E-1,2.293730695E-1
1.576587183E1,-1.758927256E-1,-7.700289041E-2,1.274793148E-1,2.304748831E-1
1.577585083E1,-2.054199874E-1,-8.154836297E-2,1.207963601E-1,2.518715295E-1
1.578582983E1,-2.293197215E-1,-8.819215000E-2,1.206189916E-1,2.737048248E-1
1.579580883E1,-2.408322841E-1,-9.032469243E-2,1.177468747E-1,2.828834842E-1
1.580578783E1,-2.297362238E-1,-7.934474945E-2,1.102958843E-1,2.669072946E-1
