"Time (s)","Gyroscope x (rad/s)","Gyroscope y (rad/s)","Gyroscope z (rad/s)","Absolute (rad/s)"
-1.963250048E-3,-3.342738375E-2,-3.356203809E-2,-5.018925294E-3,4.763391645E-2
8.061749977E-3,-5.767280236E-2,-8.213756979E-2,-2.414574847E-2,1.032266907E-1
1.808675000E-2,-7.214760780E-2,-1.079888567E-1,-1.682839915E-2,1.309582586E-1
2.811074996E-2,-6.318447739E-2,-1.174888834E-1,-1.143017039E-2,1.338901218E-1
3.813574999E-2,-3.669904917E-2,-9.493952990E-2,-1.594720781E-2,1.030274138E-1
4.816074995E-2,-3.094156459E-2,-7.496076077E-2,-1.659728400E-2,8.277660244E-2
5.818574998E-2,-4.707674310E-2,-7.165597379E-2,-1.703172550E-2,8.741211583E-2
6.821074995E-2,-5.972782150E-2,-9.118759632E-2,-2.240278758E-2,1.112855574E-1
7.823474996E-2,-5.134658143E-2,-1.121759638E-1,-2.363274433E-2,1.256122004E-1
8.825974999E-2,-3.377398103E-2,-1.048517376E-1,-1.443764754E-2,1.110991195E-1
9.828474995E-2,-2.530341037E-2,-9.366585314E-2,-9.933098219E-3,9.753061602E-2
1.083097500E-1,-2.963291109E-2,-8.914913237E-2,-1.455261745E-2,9.506553475E-2
1.183347499E-1,-3.730436787E-2,-7.357661426E-2,-1.473258901E-2,8.379846781E-2
1.283587500E-1,-3.383933008E-2,-6.091248989E-2,-1.371419616E-2,7.101767992E-2
1.383837500E-1,-2.731608227E-2,-5.196562037E-2,-1.254041307E-2,6.003212482E-2
1.484087500E-1,-2.307153679E-2,-4.877755046E-2,-1.437852532E-2,5.584162631E-2
1.584337500E-1,-2.004479058E-2,-6.169996783E-2,-2.095082402E-2,6.817343095E-2
1.684587499E-1,-2.207731456E-2,-5.747406185E-2,-1.616352424E-2,6.365481222E-2
1.784827500E-1,-2.557189763E-2,-3.481126204E-2,-5.654632114E-3,4.356283711E-2
1.885077500E-1,-2.019897103E-2,-2.114791423E-2,-7.197135128E-3,3.011696301E-2
1.985327500E-1,-1.959047653E-2,-1.562631503E-2,-1.414586511E-2,2.877627480E-2
2.085577500E-1,-2.491226979E-2,-4.122275859E-2,-1.799173653E-2,5.141633588E-2
2.185827499E-1,-1.928878203E-2,-5.576461926E-2,-1.875543222E-2,6.191539478E-2
2.286067500E-1,-1.324074250E-2,-5.086360499E-2,-2.043881640E-2,5.639298530E-2
2.386317500E-1,-8.639166132E-3,-4.805660993E-2,-2.496125735E-2,5.483737154E-2
2.486567500E-1,-1.359948656E-3,-4.518651962E-2,-3.349375725E-2,5.626280113E-2
2.586817500E-1,7.064259611E-3,-5.339201540E-2,-5.149036646E-2,7.451086438E-2
2.687067500E-1,-2.074910328E-3,-7.466507703E-2,-6.649567932E-2,1.000042717E-1
2.787307500E-1,-3.331810981E-2,-1.151576862E-1,-6.909888238E-2,1.383692331E-1
2.887557500E-1,-6.017129496E-2,-1.614980251E-1,-6.821284443E-2,1.853515281E-1
2.987807500E-1,-6.763517112E-2,-1.841484457E-1,-6.814666092E-2,2.076755494E-1
3.088057500E-1,-5.893329158E-2,-1.668189913E-1,-6.883694977E-2,1.898426569E-1
3.188297500E-1,-4.694052786E-2,-1.223576814E-1,-6.846299022E-2,1.478580278E-1
3.288547500E-1,-2.810265869E-2,-6.170818210E-2,-7.056981325E-2,9.786601916E-2
3.388797500E-1,-1.108304970E-2,-3.830973059E-2,-5.657791346E-2,6.922087648E-2
3.489047500E-1,-4.922891967E-3,-3.850147873E-2,-5.905518308E-2,7.066904116E-2
3.589297500E-1,-6.118651479E-3,-3.619091958E-2,-6.463237107E-2,7.432741046E-2
3.689537499E-1,-1.688740961E-2,-3.091333434E-2,-6.181022525E-2,7.114297427E-2
3.789787500E-1,-3.409411386E-2,-4.112825543E-2,-4.664160684E-2,7.091813225E-2
3.890037500E-1,-3.831176087E-2,-6.150702760E-2,-4.277682677E-2,8.414726599E-2
3.990287500E-1,-3.761080280E-2,-8.163004369E-2,-3.335317597E-2,9.586694355E-2
4.090537500E-1,-2.458261512E-2,-9.253195673E-2,-2.012711763E-2,9.783439501E-2
4.190777499E-1,3.536698408E-3,-9.128396213E-2,-1.631841250E-2,9.279849441E-2
4.291027500E-1,3.841532022E-2,-9.865585715E-2,-8.205091581E-3,1.061886929E-1
4.391277500E-1,7.486298680E-2,-8.835942298E-2,6.726650521E-3,1.160047510E-1
4.491527500E-1,1.069924310E-1,-7.478103042E-2,2.898828313E-2,1.337157558E-1
4.591777500E-1,1.254712194E-1,-5.492783338E-2,5.823973194E-2,1.488353458E-1
4.692017499E-1,1.310582757E-1,-5.245508999E-2,8.531262726E-2,1.649425732E-1
4.792267500E-1,1.204381660E-1,-5.745496601E-2,1.042533517E-1,1.693374922E-1
4.892517500E-1,9.567902237E-2,-5.197870731E-2,1.292655021E-1,1.690142934E-1
4.992767500E-1,6.742662936E-2,-2.146597393E-2,1.398164630E-1,1.567028452E-1
5.093017500E-1,4.079182446E-2,9.865316562E-3,1.422436684E-1,1.483056257E-1
5.193257499E-1,2.271313965E-2,2.732512169E-2,1.396017522E-1,1.440527618E-1
5.293507500E-1,5.439609289E-3,3.334732726E-2,1.350405514E-1,1.392033912E-1
5.393757500E-1,-2.330562845E-2,4.036004841E-2,1.293948889E-1,1.375322620E-1
5.494007500E-1,-5.750247836E-2,5.040602386E-2,1.204173714E-1,1.426451737E-1
5.594247500E-1,-8.607392013E-2,4.896188900E-2,1.064848378E-1,1.454132284E-1
5.694497499E-1,-1.151601672E-1,1.915659010E-2,9.465880692E-2,1.502968023E-1
5.794747500E-1,-1.348662525E-1,-7.098286413E-3,1.044329181E-1,1.707206084E-1
5.894997500E-1,-1.364337802E-1,-4.578403197E-3,1.135217547E-1,1.775452814E-1
5.995247500E-1,-1.181255952E-1,1.721754670E-2,1.149724871E-1,1.657370596E-1
6.095487500E-1,-8.587843925E-2,3.543756157E-2,1.060833856E-1,1.410128072E-1
6.195737500E-1,-5.294562876E-2,3.231955320E-2,8.194661140E-2,1.027766522E-1
6.295987500E-1,-3.634241968E-2,-4.767361097E-3,6.576684117E-2,7.529127837E-2
6.396237500E-1,-3.261161596E-2,-4.176729172E-2,6.034522876E-2,8.030921982E-2
6.496487500E-1,-3.571899235E-2,-4.816313833E-2,6.272635609E-2,8.677632198E-2
6.596727500E-1,-3.792267293E-2,-4.347822815E-2,7.116784900E-2,9.161521804E-2
6.696977500E-1,-3.049618378E-2,-3.278617188E-2,6.685139984E-2,8.046154331E-2
6.797227500E-1,-1.519603562E-2,-2.561257780E-2,4.422779381E-2,5.331999049E-2
6.897477499E-1,-3.928467631E-3,-2.147748694E-2,1.715010405E-2,2.776403018E-2
6.997727500E-1,-6.344836671E-3,-3.285865113E-2,-9.647854604E-4,3.347952684E-2
7.097967500E-1,-2.439467609E-2,-4.086996987E-2,-6.128122099E-3,4.798967118E-2
7.198217500E-1,-3.783493489E-2,-3.140577674E-2,-1.252670214E-2,5.074173211E-2
7.298467500E-1,-4.690912366E-2,-1.165470667E-2,-1.089951023E-2,4.954893938E-2
7.398717499E-1,-6.068229303E-2,-2.277693478E-3,-8.498532698E-3,6.131682993E-2
7.498957500E-1,-7.810948789E-2,1.209485438E-2,3.799944650E-3,7.913164462E-2
7.599207500E-1,-8.023559302E-2,2.902059257E-2,5.386370700E-3,8.549244510E-2
7.699457500E-1,-6.862767786E-2,2.885707468E-2,-6.199179217E-3,7.470554698E-2
7.799707500E-1,-5.325128138E-2,2.004065551E-2,-2.307310514E-2,6.139784217E-2
7.899957499E-1,-3.680919111E-2,6.698881043E-4,-4.491901398E-2,5.807824995E-2
8.000197500E-1,-1.800294779E-2,-2.153071389E-2,-5.820807070E-2,6.462087328E-2
8.100447500E-1,-3.792136558E-4,-2.628605440E-2,-5.953725427E-2,6.508290947E-2
8.200650417E-1,2.283439413E-2,-1.442032121E-2,-5.872767419E-2,6.463973186E-2
8.300900416E-1,4.350744560E-2,2.612990793E-3,-5.905790627E-2,7.340001251E-2
8.401150416E-1,4.629937932E-2,1.954235509E-2,-6.142595783E-2,7.936425179E-2
8.501390417E-1,3.267385066E-2,1.761182956E-2,-6.735042483E-2,7.690147451E-2
8.601640416E-1,5.495290738E-3,-1.987531036E-2,-6.583374739E-2,6.898774150E-2
8.701890417E-1,-4.648322240E-2,-5.302553996E-2,-4.661744088E-2,8.453155415E-2
8.802140416E-1,-6.014702097E-2,-2.569204755E-2,-5.990936607E-2,8.869542030E-2
8.902380416E-1,-3.508348018E-2,-1.290887408E-2,-4.733178765E-2,6.031407575E-2
9.002630417E-1,-3.001550585E-2,1.170875132E-2,-3.276504949E-2,4.595186522E-2
9.102880416E-1,-1.413028315E-2,7.971803658E-3,-3.072826378E-2,3.474824816E-2
9.203130417E-1,-2.143104933E-2,-1.531769894E-2,-2.324680239E-2,3.513311255E-2
9.303380416E-1,-3.692665324E-2,-2.406325378E-2,-2.873291448E-2,5.261367005E-2
9.403620416E-1,-3.800961748E-2,4.281219095E-3,-1.839049906E-2,4.244137502E-2
9.503870417E-1,-2.290736511E-2,3.249235079E-2,-1.737237349E-2,4.338547680E-2
9.604120416E-1,-6.168271415E-3,2.331699803E-2,-2.345613763E-2,3.364402416E-2
9.704370417E-1,9.579266421E-3,-8.638537489E-3,-4.044444114E-2,4.245161356E-2
9.804620416E-1,1.667601988E-2,-1.747031324E-2,-5.993000045E-2,6.461351591E-2
9.904860416E-1,1.916580833E-2,-1.812358573E-2,-6.484593451E-2,7.000562686E-2
1.000511042E0,3.029646724E-2,-1.795937866E-2,-5.591619387E-2,6.608355277E-2
1.010536042E0,5.479515344E-2,-1.646481082E-2,-5.286101624E-2,7.789663583E-2
1.020561042E0,8.491963893E-2,-1.063602977E-2,-5.804094300E-2,1.034080329E-1
1.030586042E0,1.020283177E-1,-3.675059183E-3,-5.679644644E-2,1.168294484E-1
1.040610042E0,9.486267716E-2,1.198706962E-2,-4.791712388E-2,1.069517093E-1
1.050635042E0,8.046109974E-2,2.881505340E-2,-3.699763119E-2,9.312959029E-2
1.060660042E0,7.197649777E-2,2.923429944E-2,-4.055508971E-2,8.763547111E-2
1.070685042E0,5.897441134E-2,2.484860644E-2,-5.302880332E-2,8.311130137E-2
1.080709042E0,3.489566594E-2,-4.894463345E-4,-6.167066470E-2,7.086055280E-2
1.090734042E0,-5.581187084E-3,-2.552582324E-2,-5.987409875E-2,6.532706179E-2
1.100759042E0,-4.622901231E-2,-3.496300057E-2,-6.086106598E-2,8.404523984E-2
1.110784042E0,-7.524001598E-2,-2.945540473E-2,-6.752266735E-2,1.052995322E-1
1.120809042E0,-7.925201207E-2,-1.878220960E-2,-7.086614519E-2,1.079613975E-1
1.130833042E0,-5.614056066E-2,-4.088750575E-3,-6.734304875E-2,8.776996438E-2
1.140858042E0,-2.872020565E-2,-7.028493099E-3,-6.231773272E-2,6.897644337E-2
1.150883042E0,-1.347680483E-2,-1.846117713E-2,-5.630831048E-2,6.077059452E-2
1.160908042E0,-4.796436522E-3,-2.743626200E-2,-4.653374851E-2,5.423231533E-2
1.170933042E0,1.100463048E-2,-2.242578939E-2,-3.388905898E-2,4.210090545E-2
1.180957042E0,3.148481250E-2,-2.024815418E-2,-4.162934050E-2,5.598466894E-2
1.190982042E0,4.235211015E-2,-3.185261041E-2,-4.859776795E-2,7.190294204E-2
1.201007042E0,3.436321393E-2,-3.511974216E-2,-5.046415329E-2,7.043335522E-2
1.211032042E0,1.451121643E-2,-3.787744418E-2,-4.580841586E-2,6.118567760E-2
1.221056042E0,-2.598057967E-3,-4.443711787E-2,-4.050830752E-2,6.018579839E-2
1.231081042E0,-8.840241469E-3,-3.298099712E-2,-4.146704450E-2,5.371602945E-2
1.241106042E0,-2.253711224E-3,-3.120413795E-2,-5.028370768E-2,5.922185996E-2
1.251131042E0,5.281968974E-3,-5.005532131E-2,-6.449646503E-2,8.181215306E-2
1.261156042E0,4.830359016E-3,-5.984878913E-2,-6.566174328E-2,8.897569589E-2
1.271180042E0,3.905975726E-3,-5.492939800E-2,-5.413425341E-2,7.722054651E-2
1.281205042E0,6.417602766E-3,-4.178137332E-2,-3.889032081E-2,5.743975831E-2
1.291230042E0,7.278603036E-3,-2.398506366E-2,-2.235821448E-2,3.358796058E-2
1.301255042E0,1.272431575E-2,-6.870918907E-3,-1.857208833E-2,2.353805860E-2
1.311279042E0,1.719975658E-2,-3.928658552E-3,-1.720774919E-2,2.464493085E-2
1.321304042E0,1.512701996E-2,-1.557906857E-3,-2.963896096E-2,3.331248735E-2
1.331329042E0,6.779875606E-3,-2.384856530E-2,-4.624217376E-2,5.246960467E-2
1.341354042E0,-1.070928667E-2,-4.385062680E-2,-5.223741382E-2,6.903849429E-2
1.351379042E0,-2.455453016E-2,-5.160841346E-2,-5.467526615E-2,7.909322360E-2
1.361403042E0,-3.026205301E-2,-3.241019696E-2,-5.439778790E-2,7.018070994E-2
1.371428042E0,-2.438738570E-2,-2.606015652E-2,-5.365370214E-2,6.444064007E-2
1.381453042E0,-1.759950258E-2,-3.638007492E-2,-5.663611740E-2,6.957659187E-2
1.391478042E0,-9.698434733E-3,-3.576754779E-2,-5.636340752E-2,6.745525049E-2
1.401503042E0,-7.115455344E-3,-2.912839130E-2,-4.937895387E-2,5.777000926E-2
1.411527042E0,2.564404858E-4,-2.468677051E-2,-4.226112366E-2,4.894389618E-2
1.421552042E0,1.073880680E-2,-3.288422152E-2,-4.094032198E-2,5.359854439E-2
1.431577042E0,1.782574505E-2,-2.033008263E-2,-4.469138384E-2,5.223398544E-2
1.441602042E0,1.269073971E-2,1.002700068E-2,-3.910474479E-2,4.231756943E-2
1.451626042E0,3.078394802E-4,5.094028078E-3,-2.828272246E-2,2.873945505E-2
1.461651042E0,-8.102667518E-3,-9.122882038E-3,-2.634969167E-2,2.903767293E-2
1.471676042E0,-9.388974868E-3,-1.426597871E-2,-2.832975052E-2,3.307938576E-2
1.481701042E0,-7.997678593E-3,-1.382172666E-2,-2.895829640E-2,3.306941066E-2
1.491726042E0,-1.479619648E-2,-1.073831972E-2,-2.749701962E-2,3.302007009E-2
1.501750042E0,-1.938375644E-2,-7.205630187E-3,-2.738687582E-2,3.431751867E-2
1.511775042E0,-2.223120816E-2,-5.565654952E-3,-2.641748451E-2,3.497265530E-2
1.521800042E0,-3.119944409E-2,9.679381037E-4,-2.654734813E-2,4.097687040E-2
1.531825042E0,-4.241721332E-2,1.493142359E-2,-3.323747218E-2,5.591866373E-2
1.541849042E0,-4.725557938E-2,1.089704409E-2,-3.789389133E-2,6.154496205E-2
1.551874042E0,-4.078702629E-2,-1.262150705E-3,-4.180607945E-2,5.842022609E-2
1.561899042E0,-2.879811265E-2,2.726736013E-3,-4.207805172E-2,5.106200953E-2
1.571924042E0,-6.860856898E-3,-1.337367017E-2,-5.074211583E-2,5.292153370E-2
1.581949042E0,1.185458899E-2,-3.635819256E-2,-4.143307731E-2,5.638394578E-2
1.591973042E0,2.891559899E-2,-3.659041971E-2,-2.148839645E-2,5.134902006E-2
1.601998042E0,4.735891148E-2,-1.261071023E-2,-1.078400761E-2,5.018158357E-2
1.612023042E0,6.143158674E-2,-8.365139365E-6,-1.844112761E-2,6.413980907E-2
1.622048042E0,6.296175718E-2,-5.132691935E-3,-4.032077268E-2,7.494192487E-2
1.632073042E0,6.063814834E-2,-2.841617540E-2,-4.571926966E-2,8.108462047E-2
1.642097042E0,5.382674932E-2,-4.711873457E-2,-3.107254021E-2,7.799356926E-2
1.652122042E0,4.139404744E-2,-3.277334943E-2,-1.781053282E-2,5.572050499E-2
1.662147042E0,1.704873703E-2,5.245820154E-3,-1.055581309E-2,2.072687274E-2
1.672172042E0,-1.096878201E-2,2.132731862E-2,-1.138938311E-2,2.654970332E-2
1.682196042E0,-3.230687231E-2,1.141243801E-2,-1.296305470E-2,3.663357103E-2
1.692221042E0,-3.415244073E-2,8.288816549E-3,-1.299501397E-2,3.746950861E-2
1.702246042E0,-1.959486492E-2,2.553220838E-2,-4.116953351E-4,3.218729391E-2
1.712271042E0,-3.730680328E-3,4.019983485E-2,9.802060202E-3,4.154545802E-2
1.722296042E0,-1.512574381E-3,5.105334148E-2,1.955492049E-2,5.469119191E-2
1.732320042E0,-1.601215452E-2,5.901006982E-2,2.063536644E-2,6.453212983E-2
1.742345042E0,-3.319187462E-2,4.159384966E-2,2.117269114E-2,5.727156118E-2
1.752370042E0,-3.850141913E-2,2.598452941E-2,1.843256503E-2,4.997313775E-2
1.762395042E0,-2.570864186E-2,1.438868977E-2,8.482521400E-3,3.065814457E-2
1.772419042E0,-4.097355995E-3,1.103550382E-2,6.978358142E-4,1.179227058E-2
1.782444042E0,1.286777854E-2,8.997647092E-3,8.062506095E-5,1.570171577E-2
1.792469042E0,1.541402657E-2,3.859876422E-3,-1.583318226E-3,1.596864921E-2
1.802494042E0,9.916995652E-3,-5.489950068E-3,7.530730218E-4,1.136017049E-2
1.812519042E0,2.440437209E-3,-7.805301808E-3,6.609630771E-3,1.051502206E-2
1.822543000E0,-1.292679226E-3,9.627199732E-3,2.937683370E-3,1.014810218E-2
1.832568000E0,-3.262885846E-3,2.658700943E-2,2.094526775E-3,2.686824402E-2
1.842593000E0,1.199587993E-2,2.416392043E-2,-3.716298379E-4,2.698025750E-2
1.852618000E0,3.216479719E-2,1.956890151E-2,-7.647119462E-3,3.841867411E-2
1.862642000E0,4.350627959E-2,1.353117079E-2,-1.431149337E-2,4.775675647E-2
1.872667000E0,4.894578457E-2,3.305164631E-3,-2.163678408E-2,5.361682913E-2
1.882692000E0,5.304699019E-2,-1.257610694E-2,-2.300123870E-2,5.917092711E-2
1.892717000E0,5.173458531E-2,-1.369463373E-2,-2.113915794E-2,5.754019733E-2
1.902742000E0,4.971734434E-2,-2.048092522E-2,-1.204220299E-2,5.510260683E-2
1.912766000E0,4.432604089E-2,-2.190784737E-2,-3.043914447E-3,4.953803683E-2
1.922791000E0,3.968220204E-2,-1.705757715E-2,2.433074173E-3,4.326150653E-2
1.932816000E0,2.916058898E-2,-9.972505271E-3,9.808698669E-3,3.234194460E-2
1.942841000E0,1.060657110E-2,-1.491046324E-2,1.401584037E-2,2.304918753E-2
1.952865000E0,-8.999354206E-3,-2.759802900E-2,1.060246676E-2,3.090391371E-2
1.962890000E0,-3.279547766E-2,-3.568968177E-2,2.806921955E-3,4.855075232E-2
1.972915000E0,-4.555867985E-2,-2.382796071E-2,-1.518498175E-4,5.141388995E-2
1.982940000E0,-4.716765508E-2,-5.764823407E-3,5.738282111E-3,4.786385647E-2
1.992965000E0,-4.126236215E-2,6.351760123E-3,1.861173660E-2,4.570912520E-2
2.002989000E0,-2.507093921E-2,8.578645997E-3,2.302458696E-2,3.510379986E-2
2.013014000E0,-9.764153510E-3,9.098228998E-3,2.738125250E-2,3.046062135E-2
2.023039000E0,3.549603280E-3,2.694741264E-2,3.101307154E-2,4.123800841E-2
2.033064000E0,1.397215016E-2,3.858276084E-2,3.771811351E-2,5.573604311E-2
2.043089000E0,2.764434740E-2,3.560805693E-2,3.724499047E-2,5.847506286E-2
2.053113000E0,4.311838001E-2,3.132755682E-2,3.330856934E-2,6.284959270E-2
2.063138000E0,5.869187042E-2,2.431261539E-2,2.248028293E-2,6.738844145E-2
2.073163000E0,6.360939890E-2,1.517264545E-2,1.626925915E-2,6.738734000E-2
2.083188000E0,6.156050786E-2,9.898437187E-3,1.656650007E-2,6.451452636E-2
2.093212000E0,5.425092578E-2,9.084841236E-3,2.270961180E-2,5.950986268E-2
2.103237000E0,3.934722021E-2,-1.200910890E-3,2.752900496E-2,4.803636164E-2
2.113262000E0,1.600088552E-2,-2.595075872E-3,3.602369130E-2,3.950277320E-2
2.123287000E0,-5.952289328E-3,9.989468381E-3,4.053147882E-2,4.216657447E-2
2.133311000E0,-2.738115005E-2,1.626121253E-2,4.058447480E-2,5.158734347E-2
2.143336000E0,-4.848817363E-2,1.719977893E-2,4.263715819E-2,6.681962762E-2
2.153361000E0,-6.067213416E-2,1.054267492E-2,4.399377480E-2,7.568162313E-2
2.163386000E0,-6.430366635E-2,9.723570198E-3,4.421805218E-2,7.864315267E-2
2.173411000E0,-6.731569767E-2,1.150229573E-2,4.360312596E-2,8.102430841E-2
2.183435000E0,-6.641956419E-2,1.373657025E-2,4.644685239E-2,8.220439140E-2
2.193460000E0,-5.649396405E-2,2.579802647E-2,4.243187234E-2,7.521681949E-2
2.203485000E0,-3.148774430E-2,2.351247333E-2,2.877111360E-2,4.870412119E-2
2.213510000E0,-1.089698076E-2,1.653872058E-2,3.228994831E-2,3.788026175E-2
2.223534000E0,5.102042109E-3,9.616230614E-3,4.220065847E-2,4.358208692E-2
2.233559000E0,1.611820795E-2,8.059347048E-3,4.799676314E-2,5.126830380E-2
2.243584000E0,1.677131653E-2,5.011341535E-3,4.892862216E-2,5.196537952E-2
2.253609000E0,9.966940619E-3,-7.805387489E-3,3.127532452E-2,3.374033051E-2
2.263634000E0,-5.823945161E-3,-3.541220352E-2,4.891506862E-3,3.621973681E-2
2.273658000E0,-3.345237672E-2,-5.590469763E-2,5.721254274E-4,6.515154682E-2
2.283683000E0,-5.429306626E-2,-5.047938228E-2,-6.567360833E-4,7.413728065E-2
2.293708000E0,-5.609469488E-2,-3.870874271E-2,-7.889082655E-3,6.860917709E-2
2.303733000E0,-4.608682171E-2,-4.231582582E-2,-2.272401564E-2,6.656579554E-2
2.313757000E0,-3.013422154E-2,-5.133648217E-2,-3.584301099E-2,6.948544557E-2
2.323782000E0,-1.991436258E-2,-5.265725404E-2,-4.015184939E-2,6.914867496E-2
2.333807000E0,-2.153915726E-2,-5.138426274E-2,-4.015264660E-2,6.867687225E-2
2.343832000E0,-1.611587405E-2,-6.276918203E-2,-4.856737703E-2,8.098445357E-2
2.353857000E0,-9.755980223E-3,-6.795728952E-2,-5.854650959E-2,9.022785675E-2
2.363881000E0,-2.766554710E-3,-5.470506102E-2,-5.432327837E-2,7.714477363E-2
2.373906000E0,3.215970472E-3,-4.845728725E-2,-5.888500437E-2,7.632755003E-2
2.383931000E0,7.593081333E-3,-4.554623738E-2,-5.997158587E-2,7.568821398E-2
2.393956000E0,8.591500111E-3,-4.626262560E-2,-5.227931216E-2,7.033612786E-2
2.403980000E0,1.382561494E-2,-3.869795054E-2,-3.558338434E-2,5.435858943E-2
2.414005000E0,1.278032456E-2,-3.413196281E-2,-3.036518395E-2,4.743808572E-2
2.424030000E0,5.579464603E-3,-3.790828213E-2,-2.216386236E-2,4.426516773E-2
2.434055000E0,-1.845902763E-2,-5.472534522E-2,-1.509636641E-2,5.969505331E-2
2.444080000E0,-4.865773395E-2,-6.937917322E-2,-1.239246689E-2,8.564238428E-2
2.454104000E0,-6.820134073E-2,-9.322938323E-2,-2.166825533E-2,1.175272482E-1
2.464129000E0,-7.180699706E-2,-1.039454043E-1,-3.429681063E-2,1.309089879E-1
2.474154000E0,-6.346917152E-2,-9.686778486E-2,-4.162609577E-2,1.230627292E-1
2.484179000E0,-4.253803566E-2,-8.110070974E-2,-4.028113931E-2,1.000468879E-1
2.494203000E0,-1.883244142E-2,-6.481361389E-2,-3.457664698E-2,7.583541331E-2
2.504228000E0,-1.516025048E-2,-6.258767843E-2,-3.010867350E-2,7.108855679E-2
2.514253000E0,-3.442075569E-3,-6.596563011E-2,-4.832229763E-2,8.184348898E-2
2.524278000E0,5.742717534E-3,-1.105252355E-1,-6.073884293E-2,1.262458456E-1
2.534303000E0,5.746711977E-3,-1.098352075E-1,-7.164155692E-2,1.312604669E-1
2.544327000E0,1.168207731E-2,-1.028988361E-1,-8.402968198E-2,1.333627717E-1
2.554352000E0,2.053069696E-2,-9.985136986E-2,-8.749125898E-2,1.343373588E-1
2.564377000E0,2.966492996E-2,-5.743433908E-2,-7.123461366E-2,9.619293923E-2
2.574402000E0,4.058761895E-2,1.783573534E-4,-5.405508727E-2,6.759688663E-2
2.584426000E0,4.936609417E-2,3.677234426E-2,-4.162517935E-2,7.430930031E-2
2.594451000E0,5.553690344E-2,6.615873426E-2,-2.424325794E-2,8.971656100E-2
2.604476000E0,4.190309718E-2,6.519749761E-2,-3.954715561E-3,7.760298334E-2
2.614501000E0,7.097445428E-3,5.928793922E-2,1.955904067E-3,5.974327602E-2
2.624525000E0,-3.256820887E-2,3.728729859E-2,1.959366258E-3,4.954664450E-2
2.634550000E0,-7.765019685E-2,5.697414745E-3,2.903989051E-3,7.791307180E-2
2.644575000E0,-1.239381209E-1,-9.171340615E-3,-1.503972802E-3,1.242860943E-1
2.654600000E0,-1.484740973E-1,-7.297807373E-3,-1.067217067E-2,1.490359379E-1
2.664625000E0,-1.489782929E-1,-4.769684747E-3,-2.347416803E-2,1.508917434E-1
2.674649000E0,-1.240931898E-1,-1.582846232E-2,-3.697506338E-2,1.304485159E-1
2.684674000E0,-9.716013074E-2,-2.940163016E-2,-5.062903836E-2,1.134365302E-1
2.694699000E0,-6.619288772E-2,-3.080112115E-2,-5.078776553E-2,8.893595773E-2
2.704724000E0,-3.182586282E-2,-2.592887543E-2,-3.771978989E-2,5.574921233E-2
2.714748000E0,3.555298783E-3,-9.055887349E-3,-2.298984677E-2,2.496361952E-2
2.724773000E0,3.620163724E-2,1.040852908E-2,-4.487594590E-3,3.793460849E-2
2.734798000E0,5.419368669E-2,3.187467158E-2,1.717855223E-2,6.517708970E-2
2.744823000E0,5.626257509E-2,3.015178815E-2,2.663333528E-2,6.916604826E-2
2.754848000E0,4.078987613E-2,1.551904902E-2,3.174101189E-2,5.396430962E-2
2.764872000E0,2.520181984E-2,1.377473120E-2,3.276307508E-2,4.356941624E-2
2.774897000E0,1.179253869E-2,1.366474293E-2,2.676377445E-2,3.228140008E-2
2.784922000E0,8.201142773E-3,1.616430841E-2,1.503380015E-2,2.354907124E-2
2.794947000E0,8.386764675E-3,1.321405824E-2,1.414110884E-2,2.109312960E-2
2.804971000E0,1.015172247E-2,1.535618491E-2,1.868905872E-2,2.623262854E-2
2.814996000E0,6.568440236E-3,1.004983671E-2,2.939496748E-2,3.175228713E-2
2.825024417E0,1.114511630E-3,-3.931166604E-3,2.619714104E-2,2.651389080E-2
2.835049417E0,-6.158048753E-3,-1.886564121E-2,1.973045245E-2,2.798436593E-2
2.845073417E0,-5.507397465E-3,-3.017747775E-2,2.106912620E-2,3.721450885E-2
2.855098417E0,1.058262214E-2,-2.748688683E-2,1.726719737E-2,3.414201142E-2
2.865123417E0,3.475222364E-2,-2.019181848E-2,1.574244909E-2,4.316539453E-2
2.875148417E0,6.816291064E-2,-1.519413106E-2,6.933244877E-3,7.017915567E-2
2.885173417E0,8.882363141E-2,-1.136091352E-2,9.292364120E-4,8.955205934E-2
2.895197417E0,9.186922014E-2,-1.139846351E-2,4.208653234E-3,9.266925780E-2
2.905222417E0,7.331049442E-2,-1.283424255E-2,1.424265467E-2,7.577598291E-2
2.915247417E0,4.935509712E-2,-2.011106536E-2,1.735615730E-2,5.605012718E-2
2.925272417E0,2.586795762E-2,-3.177422285E-2,2.958215773E-2,5.053569556E-2
2.935296417E0,2.636937890E-3,-3.432872891E-2,3.870614618E-2,5.180328969E-2
2.945321417E0,-1.009919960E-2,-3.003569506E-2,4.065982252E-2,5.154956817E-2
2.955346417E0,2.507406054E-3,-2.393599041E-2,2.987828106E-2,3.836574515E-2
2.965371417E0,2.039141208E-2,-1.259237714E-2,2.670652233E-2,3.588336639E-2
2.975396417E0,4.144662991E-2,1.044370048E-2,2.410514839E-2,4.907088943E-2
2.985420417E0,5.720648170E-2,1.536073722E-2,2.485894226E-2,6.423784559E-2
2.995445417E0,6.109363213E-2,1.402622741E-2,2.357503213E-2,6.696976245E-2
3.005470417E0,5.557220057E-2,6.272409111E-3,2.499009669E-2,6.125453064E-2
3.015495417E0,5.178838223E-2,5.861216690E-3,2.742236294E-2,5.889292304E-2
3.025519417E0,5.353849009E-2,2.180334553E-2,2.948234603E-2,6.489194499E-2
3.035544417E0,4.928195849E-2,4.322421551E-2,4.555532336E-2,7.982688598E-2
3.045569417E0,2.837169915E-2,6.785034388E-2,6.140386686E-2,9.580739712E-2
3.055594417E0,1.003343798E-2,8.261437714E-2,6.548649073E-2,1.058975243E-1
3.065618417E0,6.765144877E-3,7.064104080E-2,5.401469767E-2,8.918246125E-2
3.075643417E0,1.369682048E-2,5.087931827E-2,4.149384797E-2,6.706748346E-2
3.085668417E0,1.678998396E-2,2.246152237E-2,3.636905551E-2,4.592528440E-2
3.095693417E0,1.708479598E-2,3.310199361E-3,2.648020722E-2,3.168673300E-2
3.105718417E0,1.500166859E-2,-8.745122701E-3,1.683599129E-2,2.418631503E-2
3.115742417E0,1.083728392E-2,-8.940597996E-3,1.692520827E-2,2.199644722E-2
3.125767417E0,1.742415875E-2,6.490662927E-4,2.286082134E-2,2.875134340E-2
3.135792417E0,2.665121295E-2,1.044443995E-2,2.307227626E-2,3.676551930E-2
3.145817417E0,3.375681862E-2,2.587381378E-2,2.628821321E-2,5.000047196E-2
3.155841417E0,3.472221643E-2,3.334957361E-2,3.130134940E-2,5.742474073E-2
3.165866417E0,2.705537900E-2,3.754132241E-2,4.384890944E-2,6.375006886E-2
3.175891417E0,1.666132733E-2,3.267413005E-2,4.406355694E-2,5.733058218E-2
3.185916417E0,1.013947185E-2,1.532582473E-2,2.807670273E-2,3.355578980E-2
3.195940417E0,6.711359601E-4,-3.586879931E-3,1.319362596E-2,1.368896990E-2
3.205965417E0,-9.563206695E-3,-7.442483678E-3,9.066456929E-3,1.513426995E-2
3.215990417E0,-2.055407315E-2,-1.388919726E-2,1.060070284E-2,2.697692763E-2
3.226015417E0,-2.583315223E-2,-4.439795855E-3,1.716552489E-2,3.133239196E-2
3.236040417E0,-2.415935509E-2,2.228759462E-3,2.463515848E-2,3.457647814E-2
3.246064417E0,-2.147195674E-2,-3.602241864E-3,1.780053228E-2,2.812258918E-2
3.256089417E0,-2.431008779E-2,-9.221511893E-3,1.010133326E-2,2.789361187E-2
3.266114417E0,-3.287409618E-2,-9.868263267E-3,3.835002426E-3,3.453687976E-2
3.276139417E0,-3.563046828E-2,-1.870489866E-2,-5.341791548E-4,4.024535813E-2
3.286163417E0,-3.513262421E-2,-2.311484329E-2,1.990517136E-3,4.210177458E-2
3.296188417E0,-2.956129238E-2,-1.869932376E-2,4.882177804E-3,3.531813099E-2
3.306213417E0,-2.070853673E-2,-1.551532373E-2,1.258768700E-2,2.877531282E-2
3.316238417E0,-1.926592784E-3,-1.253498066E-2,8.898677304E-3,1.549270660E-2
3.326262417E0,1.221950352E-2,-9.740700480E-4,1.160684042E-3,1.231309328E-2
3.336287417E0,2.561573684E-2,1.116861310E-2,-2.689181361E-3,2.807375267E-2
3.346312417E0,3.042368777E-2,1.060605887E-2,-7.529070601E-3,3.308740193E-2
3.356337417E0,3.021063469E-2,1.764364075E-3,-5.890959874E-3,3.083016116E-2
3.366362417E0,2.674434707E-2,-7.663012948E-4,-2.950119087E-3,2.691747611E-2
3.376386417E0,1.429353654E-2,3.108864417E-3,4.521379713E-3,1.531055516E-2
3.386411417E0,1.586611383E-3,9.942416102E-3,1.177936140E-2,1.549588102E-2
3.396436417E0,-6.452406757E-3,6.373513490E-3,1.373625081E-2,1.646024950E-2
3.406461417E0,-1.324043609E-2,2.829628531E-3,1.113409735E-2,1.752951994E-2
3.416485417E0,-1.836542413E-2,-4.255977459E-3,4.843975883E-3,1.946448689E-2
3.426510417E0,-1.835891046E-2,-5.390131846E-3,-6.742136553E-3,2.028692978E-2
3.436535417E0,-1.010843832E-2,-8.644514717E-3,-1.503229048E-2,2.007181898E-2
3.446560417E0,-3.670983715E-3,-1.140137669E-2,-1.917924732E-2,2.261218785E-2
3.456584417E0,3.351239488E-3,-1.008071471E-2,-2.919992246E-2,3.107228808E-2
3.466609417E0,1.182509027E-2,-4.619525280E-4,-3.140380606E-2,3.355957680E-2
3.476634417E0,1.705074497E-2,1.449515950E-2,-2.939018980E-2,3.694077434E-2
3.486659417E0,1.283457130E-2,2.311999537E-2,-2.498007566E-2,3.637670390E-2
3.496684417E0,-7.121301605E-4,1.733907126E-2,-1.465286966E-2,2.271248799E-2
3.506708417E0,-2.377612703E-2,1.286435965E-2,8.185612038E-3,2.824535732E-2
3.516733417E0,-3.240024298E-2,3.292275593E-2,1.906329393E-2,4.997091933E-2
3.526758417E0,-3.001750819E-2,4.356846586E-2,8.765225299E-3,5.362920091E-2
3.536783417E0,-2.823638543E-2,2.977142669E-2,-4.611832555E-3,4.129043847E-2
3.546807417E0,-2.328571863E-2,1.226123981E-2,-9.830703028E-3,2.809280008E-2
3.556832417E0,-9.577362798E-3,-1.927549951E-3,-2.310176566E-2,2.508252188E-2
3.566857417E0,6.678224541E-3,4.395180847E-3,-2.569708601E-2,2.691201455E-2
3.576882417E0,2.544685267E-2,7.439972833E-3,-2.085945383E-2,3.373443820E-2
3.586906417E0,4.038149118E-2,-4.221943673E-4,-1.737792417E-2,4.396402310E-2
3.596931417E0,4.874008894E-2,-5.651311483E-3,-1.483806595E-2,5.126111384E-2
3.606956417E0,4.580413550E-2,-9.658707306E-3,-9.450403973E-3,4.775583306E-2
3.616981417E0,3.956994414E-2,2.256808570E-3,-5.487353541E-3,4.001230702E-2
3.627006417E0,3.318757564E-2,1.540218946E-2,-2.278263681E-3,3.665832923E-2
3.637030417E0,3.352925926E-2,1.246552169E-2,-3.857518081E-3,3.597889525E-2
3.647055417E0,3.101898357E-2,1.091380045E-2,-9.607865475E-3,3.425783795E-2
3.657080417E0,2.788550779E-2,1.541986875E-2,-1.957128383E-2,3.739530783E-2
3.667105417E0,2.972761728E-2,1.830646954E-2,-2.944042534E-2,4.566833367E-2
3.677129417E0,3.011709452E-2,1.874038391E-2,-3.362055123E-2,4.887313000E-2
3.687154417E0,2.739802748E-2,1.419180818E-2,-3.163814545E-2,4.419311685E-2
3.697179417E0,1.662926935E-2,-2.449220046E-4,-2.223692089E-2,2.776820550E-2
3.707204417E0,-2.707657404E-3,-3.930900246E-3,-9.494011290E-3,1.062636512E-2
3.717228417E0,-2.128320560E-2,-8.015124127E-3,1.166888978E-3,2.277232279E-2
3.727253417E0,-3.744258732E-2,-4.238590598E-3,1.120767929E-2,3.931316663E-2
3.737278417E0,-4.403870553E-2,-2.105931519E-3,1.412916742E-2,4.629768789E-2
3.747303417E0,-3.615843132E-2,2.612554235E-3,8.164800704E-3,3.716075303E-2
3.757327417E0,-2.118347585E-2,7.478682324E-3,1.035784837E-3,2.248873471E-2
3.767352417E0,-1.314351428E-2,1.385819726E-2,-2.997601405E-4,1.910213221E-2
3.777377417E0,-1.696754806E-2,9.479695000E-3,-5.877218209E-3,2.030527021E-2
3.787402417E0,-1.944787428E-2,3.655551234E-3,-1.419381704E-2,2.435256272E-2
3.797427417E0,-2.878944390E-2,-1.014201995E-2,-2.874772623E-2,4.192999418E-2
3.807451417E0,-3.066386096E-2,-3.216782957E-2,-3.689611331E-2,5.776127427E-2
3.817476417E0,-2.407280356E-2,-3.653461486E-2,-3.635229543E-2,5.688380558E-2
3.827501250E0,-9.027129970E-3,-2.232593670E-2,-2.720563859E-2,3.633295056E-2
3.837526250E0,1.152661443E-2,-1.542096958E-3,-1.639506966E-2,2.010072666E-2
3.847550250E0,2.340324596E-2,1.470345166E-2,-3.829209134E-3,2.790280012E-2
3.857575250E0,2.320404164E-2,1.677938551E-2,8.279651403E-3,2.980818602E-2
3.867600250E0,6.402058527E-3,6.082017440E-3,9.854093194E-3,1.323179664E-2
3.877625250E0,-1.711471938E-2,-2.454745350E-3,1.351530664E-4,1.729039214E-2
3.887649250E0,-4.204563424E-2,-1.396013331E-2,-4.596751649E-3,4.454044012E-2
3.897674250E0,-5.395688862E-2,-2.334511466E-2,-5.319799762E-3,5.903084344E-2
3.907699250E0,-5.686460808E-2,-2.339665964E-2,-5.380055401E-3,6.172464929E-2
3.917724250E0,-5.156438425E-2,-1.749163121E-2,-1.149920002E-2,5.565136554E-2
3.927748250E0,-3.363420442E-2,-1.366800163E-2,-1.156835537E-2,3.810381636E-2
3.937773250E0,-1.399099641E-2,-1.482701022E-2,-1.526455674E-2,2.546752648E-2
3.947798250E0,-1.603649696E-3,-1.552543603E-2,-1.941196620E-2,2.490853846E-2
3.957823250E0,1.043798635E-3,-1.834226213E-2,-1.313036866E-2,2.258173326E-2
3.967848250E0,-1.538236742E-3,-2.007063851E-2,-9.214741178E-3,2.213838651E-2
3.977872250E0,-9.302949533E-3,-3.079704940E-2,-8.359067142E-3,3.323969202E-2
3.987897250E0,-2.089595608E-2,-2.550828084E-2,-2.994395792E-3,3.311011595E-2
3.997922250E0,-2.586567961E-2,-1.951137185E-2,-9.634988382E-3,3.380177531E-2
4.007947250E0,-2.876453474E-2,-2.778181061E-2,-1.155683585E-2,4.162676921E-2
4.017971250E0,-3.882409632E-2,-2.636048198E-2,-1.467406563E-2,4.916821806E-2
4.027996250E0,-3.862390667E-2,-1.596869715E-2,-9.340197779E-3,4.282574868E-2
4.038021250E0,-2.500636503E-2,-7.072141394E-3,-1.313307229E-2,2.911719533E-2
4.048046250E0,-7.104614750E-3,-6.009653211E-3,-1.387753338E-2,1.670860303E-2
4.058070250E0,3.365070326E-3,-1.175009646E-2,-7.521899417E-3,1.435156562E-2
4.068095250E0,2.382815816E-3,1.413229736E-3,-2.877567895E-4,2.785288759E-3
4.078120250E0,7.631640416E-3,1.600122638E-2,2.564754803E-3,1.791254165E-2
4.088145250E0,1.408202201E-2,6.495829206E-3,8.239950985E-4,1.552991014E-2
4.098169250E0,6.267774850E-3,-5.548849702E-3,-3.624283010E-3,9.121960421E-3
4.108194250E0,-9.492731653E-3,-2.207574807E-2,-2.155747497E-3,2.412670418E-2
4.118219250E0,-2.355102636E-2,-3.157684207E-2,-4.551793449E-3,3.965433925E-2
4.128244250E0,-2.568239532E-2,-3.670176864E-2,-1.386104058E-2,4.689065682E-2
4.138269250E0,-1.647211798E-2,-3.191047534E-2,-1.782781817E-2,4.009289473E-2
4.148293250E0,-8.006114513E-3,-1.804830879E-2,-1.304391306E-2,2.366395968E-2
4.158318250E0,-5.635901820E-3,-1.339097414E-2,-2.511377679E-3,1.474410376E-2
4.168343250E0,-1.011779532E-2,-1.773090474E-2,1.225653104E-2,2.381128553E-2
4.178368250E0,-1.981143653E-2,-2.556885406E-2,2.387909777E-2,4.020535569E-2
4.188392250E0,-2.929987200E-2,-3.422260657E-2,1.976044104E-2,4.919496244E-2
4.198417250E0,-2.742180973E-2,-4.130368307E-2,4.315703642E-3,4.976520051E-2
4.208442250E0,-2.068040892E-2,-3.939959779E-2,-6.202785298E-4,4.450159958E-2
4.218467250E0,-1.475993451E-2,-2.620710060E-2,5.355854519E-3,3.055082595E-2
4.228491250E0,-9.551179595E-3,-1.408873685E-2,1.544846594E-2,2.298635764E-2
4.238516250E0,-9.210827760E-3,-1.823368110E-2,1.977290772E-2,2.843016627E-2
4.248541250E0,-1.775168628E-2,-2.885461785E-2,1.783570647E-2,3.828607792E-2
4.258566250E0,-2.638272569E-2,-3.665288910E-2,1.283082645E-2,4.694797761E-2
4.268590250E0,-2.581248246E-2,-2.523613721E-2,1.504110172E-2,3.910730895E-2
4.278615250E0,-1.684641838E-2,-8.229456842E-3,2.152962610E-2,2.854909057E-2
4.288640250E0,4.276710562E-3,-2.503602300E-4,2.475737780E-2,2.512529978E-2
4.298665250E0,2.274493314E-2,-5.864037201E-3,2.233230323E-2,3.241065694E-2
4.308689250E0,2.744352818E-2,-9.297488257E-3,2.194699459E-2,3.634915540E-2
4.318714250E0,2.999829873E-2,-3.429212607E-3,2.857400291E-2,4.157079586E-2
4.328739250E0,3.113501705E-2,6.111708470E-3,3.003801219E-2,4.369238428E-2
4.338764250E0,3.194621578E-2,8.921875618E-3,2.389463224E-2,4.087926145E-2
4.348789250E0,2.184869535E-2,3.462481778E-3,2.078882232E-2,3.035670276E-2
4.358813250E0,5.134963896E-3,1.956464257E-3,2.443895116E-2,2.504911058E-2
4.368838250E0,-1.216978114E-2,5.771601573E-4,2.597825229E-2,2.869331419E-2
4.378863250E0,-1.754697040E-2,-8.241897449E-3,1.151702087E-2,2.254920871E-2
4.388888250E0,-1.853035577E-2,-2.383648232E-2,1.995390281E-3,3.025778505E-2
4.398912250E0,-2.096608281E-2,-2.765572444E-2,1.626010053E-3,3.474276372E-2
4.408937250E0,-2.177248150E-2,-1.755995490E-2,5.466931034E-3,2.850053160E-2
4.418962250E0,-1.808853075E-2,-1.195293665E-2,7.507444825E-3,2.294404862E-2
4.428987250E0,-8.898354135E-3,-1.679890044E-2,4.283608869E-3,1.948674081E-2
4.439011250E0,-3.222092986E-3,-2.954292484E-2,7.133749314E-4,2.972667480E-2
4.449036250E0,-8.090259507E-3,-2.569613233E-2,1.949371304E-3,2.701006413E-2
4.459061250E0,-9.418377653E-3,-6.568776444E-3,1.013646089E-2,1.531673924E-2
4.469086250E0,-1.295045950E-2,4.168193322E-3,1.518432982E-2,2.038754789E-2
4.479110250E0,-1.426792517E-2,1.573209185E-3,8.585017174E-3,1.672576443E-2
4.489135250E0,-1.760355011E-2,-1.006145589E-2,-8.453428745E-4,2.029365604E-2
4.499160250E0,-2.474161983E-2,-2.050264552E-2,-2.747106366E-3,3.224984990E-2
4.509185250E0,-2.889242209E-2,-3.042371944E-2,-5.929850042E-3,4.237378766E-2
4.519209250E0,-2.751610056E-2,-3.574018925E-2,-1.622909307E-2,4.793621157E-2
4.529234250E0,-2.006589249E-2,-3.185878322E-2,-1.642925665E-2,4.107971012E-2
4.539259250E0,-1.204604935E-2,-1.604493335E-2,-1.114900596E-2,2.295315937E-2
4.549284250E0,-3.796270583E-3,-7.545480505E-3,-3.638496622E-3,9.196988858E-3
4.559309250E0,-9.610693087E-4,-8.870403282E-3,-5.629742052E-3,1.054996228E-2
4.569333250E0,-6.318324711E-3,-1.851045340E-2,-8.079485036E-3,2.116214051E-2
4.579358250E0,-1.499277353E-2,-1.253991388E-2,-9.773788974E-3,2.185313820E-2
4.589383250E0,-1.976302639E-2,-3.951751627E-3,-1.055063214E-2,2.274883275E-2
4.599408250E0,-1.782211475E-2,1.400403096E-3,-9.238759056E-3,2.012320978E-2
4.609432250E0,-8.493432775E-3,-1.692565158E-3,-1.059124153E-2,1.368128555E-2
4.619457250E0,-1.603835262E-3,-5.572258495E-3,-1.320673246E-2,1.442359645E-2
4.629482250E0,-1.132491627E-3,-1.546105742E-2,-1.378176548E-2,2.074280342E-2
4.639507250E0,-5.570649635E-3,-1.826243661E-2,-1.549604256E-2,2.459016192E-2
4.649531250E0,-1.614325866E-2,-1.450932026E-2,-1.382978261E-2,2.573690077E-2
4.659556250E0,-1.965729892E-2,-2.098479681E-2,-1.584712788E-2,3.283142641E-2
4.669581250E0,-1.722093858E-2,-3.471021354E-2,-2.471836284E-2,4.596038632E-2
4.679606250E0,-1.372367516E-2,-3.885835409E-2,-2.831682563E-2,5.000153554E-2
4.689630250E0,-7.596395444E-3,-3.169560060E-2,-2.205969952E-2,3.935665972E-2
4.699655250E0,8.775166934E-4,-2.129063010E-2,-1.504200324E-2,2.608299882E-2
4.709680250E0,1.209274121E-2,-1.438496821E-2,-1.102359034E-2,2.178718073E-2
4.719705250E0,1.780202612E-2,5.335966125E-5,-4.994459916E-3,1.848944594E-2
4.729729250E0,1.726687700E-2,2.487488091E-4,6.173835136E-4,1.727970137E-2
4.739754250E0,9.021196514E-3,-7.693063468E-3,1.389966346E-3,1.193721988E-2
4.749779250E0,-3.975848667E-4,-4.090768751E-3,-2.088970738E-3,4.610451327E-3
4.759804250E0,-3.968883771E-3,5.578103941E-3,-1.780842897E-3,7.073802612E-3
4.769829250E0,-5.046152510E-3,1.565646753E-2,1.929522958E-3,1.656235760E-2
4.779853250E0,1.366473036E-3,1.521331724E-2,-4.488961771E-3,1.592052285E-2
4.789878250E0,6.343880668E-3,7.528825663E-3,-8.888021111E-4,9.885241878E-3
4.799903250E0,3.837845987E-3,9.748570621E-3,1.124003157E-2,1.536561098E-2
4.809928250E0,-4.281724803E-3,1.194586791E-2,2.812199481E-2,3.085260960E-2
4.819953375E0,-1.311063673E-2,1.876675710E-2,2.998434566E-2,3.772454045E-2
4.829978375E0,-1.346125547E-2,1.966220699E-2,1.349124778E-2,2.738286963E-2
4.840003375E0,-1.011472754E-2,1.716522686E-2,3.725702874E-3,2.026903028E-2
4.850028375E0,-1.297225617E-2,2.686252631E-2,1.339432225E-2,3.269988713E-2
4.860052375E0,-1.267051976E-2,2.873099968E-2,2.020269260E-2,3.733846812E-2
4.870077375E0,-1.252291631E-2,2.542711608E-2,1.700685918E-2,3.305442367E-2
4.880102375E0,-1.361934002E-2,1.572362147E-2,9.372376837E-3,2.281578713E-2
4.890127375E0,-1.146445516E-2,1.840684563E-2,6.240203045E-3,2.256514641E-2
4.900151375E0,-6.625491660E-3,2.365460247E-2,8.035706356E-3,2.584588815E-2
4.910176375E0,4.279946908E-3,3.149073198E-2,1.320661604E-2,3.441509631E-2
4.920201375E0,1.951349527E-2,4.475327209E-2,1.988529228E-2,5.271675928E-2
4.930226375E0,3.426044062E-2,5.333776772E-2,2.987916954E-2,7.008180954E-2
4.940250375E0,3.808687255E-2,4.182758555E-2,2.847222053E-2,6.333106753E-2
4.950275375E0,3.397747129E-2,2.318261378E-2,2.003449760E-2,4.575241230E-2
4.960300375E0,2.322016284E-2,1.399124600E-2,1.388312876E-2,3.045771152E-2
4.970325375E0,1.159088127E-2,8.522391319E-3,1.132542081E-2,1.830969249E-2
4.980349375E0,-3.102045041E-3,1.368466299E-2,1.045616530E-2,1.749925934E-2
4.990374375E0,-2.043633908E-2,8.942974731E-3,6.762615871E-3,2.330994907E-2
5.000399375E0,-4.201380163E-2,-1.724316971E-3,6.885121111E-3,4.260912683E-2
5.010424375E0,-5.465750024E-2,-1.742860116E-2,7.842835970E-3,5.790257807E-2
5.020448375E0,-6.325072050E-2,-2.635391988E-2,8.238847367E-3,6.901493565E-2
5.030473375E0,-6.403511018E-2,-1.968230493E-2,1.484677102E-2,6.861716310E-2
5.040498375E0,-5.607865006E-2,-8.110869676E-3,1.582548395E-2,5.883066497E-2
5.050523375E0,-4.238997400E-2,-5.583438091E-3,1.502952352E-2,4.532075963E-2
5.060548375E0,-2.855352312E-2,5.014345050E-3,1.374667883E-2,3.208455264E-2
5.070572375E0,-1.046927553E-2,1.615228131E-2,1.518681459E-2,2.451818222E-2
5.080597375E0,8.188564330E-3,1.366861723E-2,1.557403803E-2,2.228080661E-2
5.090622375E0,2.676647715E-2,1.568466984E-2,1.408565044E-2,3.407137678E-2
5.100647375E0,4.193930700E-2,1.648761332E-2,5.193355959E-3,4.536207459E-2
5.110671375E0,4.416607320E-2,1.227261126E-2,2.341129351E-3,4.589923633E-2
5.120696375E0,3.541173041E-2,6.913266145E-3,1.657229383E-3,3.611828219E-2
5.130721375E0,2.465509810E-2,5.509970710E-3,-2.162089804E-3,2.535563590E-2
5.140746375E0,1.152544841E-2,5.373160820E-4,5.634846631E-3,1.284041145E-2
5.150770375E0,1.194378594E-3,7.532439660E-3,7.975690067E-3,1.103520818E-2
5.160795375E0,-1.070382632E-2,1.346862502E-2,1.782246307E-2,2.477127263E-2
5.170820375E0,-2.346182615E-2,2.229612879E-2,2.708778344E-2,4.220571830E-2
5.180845375E0,-3.390035033E-2,2.181223221E-2,2.692773007E-2,4.847793182E-2
5.190869375E0,-3.279341385E-2,2.158753946E-2,2.436212078E-2,4.620544103E-2
5.200894375E0,-2.618557960E-2,2.719668858E-2,2.170028910E-2,4.354591824E-2
5.210919375E0,-1.835877635E-2,3.087418899E-2,1.766523533E-2,4.002899891E-2
5.220944375E0,-8.586839773E-3,3.154157475E-2,1.835446246E-2,3.748987926E-2
5.230968375E0,2.865445800E-3,3.431767970E-2,1.968111843E-2,3.966434599E-2
5.240993375E0,9.514028206E-3,3.467694297E-2,2.601944283E-2,4.438489058E-2
5.251018375E0,1.298840716E-2,4.485831410E-2,3.160137683E-2,5.638806684E-2
5.261043375E0,1.585423574E-2,4.618430138E-2,3.425894678E-2,5.964915690E-2
5.271067375E0,1.768827438E-2,4.767366126E-2,3.537128121E-2,6.194175137E-2
5.281092375E0,1.428768318E-2,4.161496833E-2,3.111981042E-2,5.389235642E-2
5.291117375E0,2.587185707E-3,2.354913205E-2,2.957759239E-2,3.789576654E-2
5.301142375E0,-1.584295370E-2,2.438003756E-2,3.076882474E-2,4.233327284E-2
5.311166375E0,-2.930162661E-2,2.283611521E-2,2.698556893E-2,4.591616720E-2
5.321191375E0,-3.138634562E-2,2.170906588E-2,2.622843347E-2,4.630677009E-2
5.331216375E0,-2.463755198E-2,2.326050401E-2,2.898833528E-2,4.459129508E-2
5.341241375E0,-1.408184692E-2,2.500993572E-2,2.926130593E-2,4.098803877E-2
5.351265375E0,-9.152952582E-3,3.912801296E-2,3.706472367E-2,5.466783039E-2
5.361290375E0,-9.979331866E-3,4.415659234E-2,3.782825172E-2,5.899464670E-2
5.371315375E0,-1.301498339E-2,3.466628864E-2,4.012913629E-2,5.460301219E-2
5.381340375E0,-1.779855415E-2,2.085433900E-2,3.780765831E-2,4.670236624E-2
5.391364375E0,-2.281666175E-2,2.303134091E-2,2.945802920E-2,4.380431716E-2
5.401389375E0,-2.078307047E-2,2.208219096E-2,2.107306756E-2,3.692740652E-2
5.411414375E0,-2.578659914E-2,1.799780317E-2,1.539009623E-2,3.501035099E-2
5.421439375E0,-3.507197648E-2,1.808941737E-2,1.562498696E-2,4.244302973E-2
5.431463375E0,-4.101752490E-2,2.073985524E-2,1.811461151E-2,4.940362430E-2
5.441488375E0,-3.816527873E-2,2.447600290E-2,2.913317084E-2,5.389253067E-2
5.451513375E0,-3.111778572E-2,3.214715794E-2,4.097341746E-2,6.066776154E-2
5.461538375E0,-1.996686496E-2,3.797202557E-2,3.824207932E-2,5.747179354E-2
5.471563375E0,-1.617085375E-2,2.838539891E-2,2.257192135E-2,3.970792132E-2
5.481587375E0,-2.211209945E-2,9.036734700E-3,6.272309460E-3,2.469715332E-2
5.491612375E0,-2.517605573E-2,-4.418909550E-3,7.917443290E-4,2.557317741E-2
5.501637375E0,-2.401784807E-2,-1.915005269E-3,-3.829761408E-4,2.409711481E-2
5.511662375E0,-1.904606447E-2,8.145065047E-3,7.031458430E-3,2.187546717E-2
5.521686375E0,-8.540958166E-3,1.369695738E-2,9.155862033E-3,1.855759730E-2
5.531711375E0,3.634768073E-3,1.653492451E-2,1.048632711E-2,1.991427437E-2
5.541736375E0,1.050039753E-2,1.518949587E-2,9.457016364E-3,2.074642841E-2
5.551761375E0,2.883128822E-3,-2.730789129E-4,5.369155202E-3,6.100396010E-3
5.561785375E0,-1.082229614E-2,-5.762652960E-3,5.226675887E-3,1.332848092E-2
5.571810375E0,-1.412369683E-2,-5.036321469E-3,-2.946329536E-3,1.528149875E-2
5.581835375E0,-2.217769856E-3,-2.526292112E-3,-3.516512457E-3,4.864824234E-3
5.591860375E0,1.745033264E-2,-1.272932859E-3,-7.645396981E-3,1.909414995E-2
5.601884375E0,3.827119246E-2,-4.497222137E-3,-1.737711951E-2,4.227142607E-2
5.611909375E0,4.613829404E-2,-4.933360033E-3,-2.229893953E-2,5.148128711E-2
5.621934375E0,4.241146147E-2,-1.116728783E-2,-2.451442368E-2,5.024338116E-2
5.631959375E0,2.852491662E-2,-1.833740808E-2,-2.286119387E-2,4.089701197E-2
5.641983375E0,1.627570763E-2,-1.159188803E-2,-1.836018451E-2,2.713608119E-2
5.652008375E0,8.185070008E-3,-6.536214147E-3,-1.510152966E-2,1.837861976E-2
5.662033375E0,1.321837539E-3,-9.944526479E-3,-9.622341953E-3,1.390073113E-2
5.672058375E0,-9.165650234E-3,-1.222318783E-2,-3.322200850E-3,1.563497629E-2
5.682082375E0,-7.988799363E-3,-4.366329871E-3,-1.085601747E-2,1.416823444E-2
5.692107375E0,3.917416325E-4,-1.211162843E-2,-2.306887880E-2,2.605797716E-2
5.702132375E0,1.152748242E-2,-2.126224898E-2,-3.303629160E-2,4.094340784E-2
5.712157375E0,2.114349976E-2,-2.676095441E-2,-3.782819584E-2,5.093298208E-2
5.722181375E0,2.781631425E-2,-9.189151227E-3,-3.734589741E-2,4.746476474E-2
5.732206375E0,3.391575068E-2,4.308015108E-3,-3.334263340E-2,4.775529646E-2
5.742231375E0,3.678504378E-2,1.350577362E-2,-2.608605288E-2,4.707470150E-2
5.752256375E0,3.046389110E-2,1.311329938E-2,-2.430245467E-2,4.111710818E-2
5.762280375E0,2.265257202E-2,7.728122175E-3,-2.285156399E-2,3.309164348E-2
5.772305375E0,1.570981182E-2,2.284871414E-3,-2.447687276E-2,2.917423735E-2
5.782330375E0,1.133956388E-2,-1.041547675E-2,-3.469568864E-2,3.795864427E-2
5.792355375E0,2.678924473E-3,-1.629141718E-2,-3.587669879E-2,3.949334661E-2
5.802379375E0,-6.042205496E-4,-1.598648541E-2,-3.416668624E-2,3.772658541E-2
5.812404375E0,5.064264871E-3,-1.393937040E-2,-3.331474587E-2,3.646676732E-2
5.822425500E0,1.200872473E-2,-8.616243489E-3,-3.203376755E-2,3.527905023E-2
5.832450500E0,1.570870727E-2,-3.731149714E-3,-3.181697801E-2,3.567919635E-2
5.842474500E0,1.385301538E-2,6.717762444E-3,-2.656948566E-2,3.070784811E-2
5.852499500E0,1.466851495E-2,1.880445890E-2,-2.279775031E-2,3.299258136E-2
5.862524500E0,1.682700776E-2,2.081621066E-2,-1.422023959E-2,3.030970192E-2
5.872549500E0,1.716766506E-2,1.628318429E-2,-1.220938563E-2,2.662592556E-2
5.882573500E0,9.598429315E-3,-1.223370433E-3,-1.379583031E-2,1.685085797E-2
5.892598500E0,-1.931779552E-3,-1.174850482E-2,-1.898048073E-2,2.240575343E-2
5.902623500E0,-1.392985228E-2,-1.305691618E-2,-1.868087426E-2,2.671140034E-2
5.912648500E0,-1.768821105E-2,-1.048693806E-2,-2.217134275E-2,3.023933067E-2
5.922672500E0,-1.683839783E-2,-3.713720012E-3,-2.351703867E-2,2.916118080E-2
5.932697500E0,-1.518750470E-2,-1.938457135E-3,-2.351277694E-2,2.805830705E-2
5.942722500E0,-1.843922585E-2,-1.041583158E-2,-2.597407065E-2,3.351338455E-2
5.952747500E0,-2.037828229E-2,3.089613048E-3,-2.339741588E-2,3.118107066E-2
5.962771500E0,-1.737743244E-2,1.441923343E-2,-1.984369569E-2,3.006096654E-2
5.972796500E0,-7.890367880E-3,2.190870978E-2,-1.847571507E-2,2.972543552E-2
5.982821500E0,-5.528269103E-4,1.115593221E-2,-1.717050001E-2,2.048381097E-2
5.992846500E0,3.969026264E-3,-3.860281548E-3,-1.874515414E-2,1.954573475E-2
6.002870500E0,4.078748170E-3,-1.233818848E-2,-2.121071145E-2,2.487491431E-2
6.012895500E0,1.616875757E-3,-7.804351393E-3,-1.326757856E-2,1.547742965E-2
6.022920500E0,5.077120848E-3,-5.295653827E-3,-8.477617055E-3,1.121120406E-2
6.032945500E0,1.166703366E-2,-1.691996492E-2,-7.999114692E-3,2.205426769E-2
6.042969500E0,1.293922588E-2,-2.548149601E-2,-3.157753963E-3,2.875241929E-2
6.052994500E0,2.496465109E-3,-2.000301704E-2,-5.181961693E-3,2.081359545E-2
6.063019500E0,3.832839429E-3,-7.472045254E-3,-1.043789089E-4,8.398393497E-3
6.073044500E0,7.940873504E-3,-4.088388756E-3,6.828111596E-3,1.124257544E-2
6.083068500E0,1.377186459E-2,-8.721224032E-3,5.504254252E-3,1.720525552E-2
6.093093500E0,1.567569748E-2,-1.023314334E-2,3.349638544E-3,1.901748649E-2
6.103118500E0,1.185406186E-2,-3.983236849E-3,1.207415294E-2,1.738304138E-2
6.113143500E0,2.624676097E-3,6.545070559E-3,2.921475098E-2,3.005376096E-2
6.123168500E0,-4.171865876E-4,9.236993268E-3,4.331139848E-2,4.428739468E-2
6.133192500E0,-8.014459163E-3,9.709012695E-3,4.373142123E-2,4.550751241E-2
6.143217500E0,-1.257245988E-2,1.321586315E-2,3.795502335E-2,4.211068253E-2
6.153242500E0,-1.178415120E-2,1.208360307E-2,2.543933876E-2,3.052932425E-2
6.163266500E0,-1.089678612E-2,5.522373132E-3,1.875400543E-2,2.238189609E-2
6.173291500E0,-2.553292550E-3,3.182410728E-3,2.022402734E-2,2.063148862E-2
6.183316500E0,8.547561243E-3,4.566722084E-3,2.275935933E-2,2.473669725E-2
6.193341500E0,1.325143408E-2,1.823229715E-3,2.480028942E-2,2.817763346E-2
6.203365500E0,1.438008249E-2,2.370242961E-3,2.326178178E-2,2.745023344E-2
6.213390500E0,1.442299224E-2,3.420812776E-3,2.491699345E-2,2.899277890E-2
6.223415500E0,9.516917169E-3,1.242256351E-2,3.050963208E-2,3.428891142E-2
6.233440500E0,9.377101436E-3,2.141312882E-2,3.826289251E-2,4.483861127E-2
6.243465500E0,1.035653055E-2,3.063684143E-2,4.549730197E-2,5.582005253E-2
6.253489500E0,9.252551012E-3,3.164033592E-2,4.908056557E-2,5.912378941E-2
6.263514500E0,9.860550985E-3,2.117331326E-2,4.016696662E-2,4.646423213E-2
6.273539500E0,5.883486010E-3,1.042105071E-2,2.811990678E-2,3.056047878E-2
6.283564500E0,-5.106314551E-3,5.565575790E-3,2.452064678E-2,2.565759538E-2
6.293588500E0,-1.182148792E-2,2.129096538E-5,1.453262009E-2,1.873352814E-2
6.303613500E0,-1.360287610E-2,-7.848083973E-3,6.335677113E-3,1.693432800E-2
6.313638500E0,-1.415897720E-2,-5.789806135E-3,8.044989780E-3,1.728352831E-2
6.323663500E0,-1.638085209E-2,3.876403905E-3,1.678148843E-2,2.376924855E-2
6.333687500E0,-1.671514474E-2,1.334057376E-2,2.013136446E-2,2.937071342E-2
6.343712500E0,-1.875512674E-2,6.115950644E-3,2.130102552E-2,2.903262509E-2
6.353737500E0,-2.049363777E-2,4.246944096E-3,2.571841143E-2,3.315814243E-2
6.363762500E0,-1.857749373E-2,6.033392623E-3,2.045733668E-2,2.828476133E-2
6.373786500E0,-1.293455623E-2,4.233283456E-3,1.511219982E-2,2.033720770E-2
6.383811500E0,-5.938698538E-3,2.829797799E-3,7.819932885E-3,1.021896503E-2
6.393836500E0,1.008876017E-3,-8.154178504E-4,3.805681597E-3,4.020690178E-3
6.403861500E0,7.555191871E-3,3.070400562E-3,2.798740286E-3,8.622136105E-3
6.413885500E0,9.874200448E-3,1.458761748E-3,2.985735890E-3,1.041837027E-2
6.423910500E0,4.424840212E-3,-2.672330011E-4,5.038501229E-3,6.710970050E-3
6.433935500E0,-9.578011930E-3,-5.093871150E-4,6.657182239E-3,1.167543846E-2
6.443960500E0,-2.355002053E-2,1.208884409E-3,1.460645255E-2,2.773830068E-2
6.453984500E0,-2.729175612E-2,4.983245395E-3,1.726534590E-2,3.267667143E-2
6.464009500E0,-2.466028929E-2,8.647754788E-3,1.807042025E-2,3.177189983E-2
6.474034500E0,-1.818381250E-2,1.731258444E-2,1.813703775E-2,3.097303272E-2
6.484059500E0,-1.252140012E-2,2.067482471E-2,1.252469234E-2,2.722318417E-2
6.494083500E0,-1.074428670E-2,1.576357521E-2,5.752700381E-3,1.992545010E-2
6.504108500E0,-9.532282129E-3,1.085536927E-2,-4.564598203E-4,1.445378152E-2
6.514133500E0,-1.276423410E-2,8.046310395E-3,-1.787656918E-3,1.519422589E-2
6.524158500E0,-1.153731532E-2,1.128693111E-5,-7.174699102E-3,1.358624597E-2
6.534182500E0,-8.410764858E-3,-2.027895302E-3,-7.360055111E-3,1.135886157E-2
6.544207500E0,-3.169131000E-3,-6.081643514E-4,-3.933631815E-3,5.087898822E-3
6.554232500E0,-5.338405026E-5,2.385453554E-3,3.149817698E-3,3.951530089E-3
6.564257500E0,-9.604567313E-4,1.142556197E-3,4.337853752E-3,4.587470651E-3
6.574281500E0,-3.363701515E-3,-3.535006428E-3,2.717209980E-3,5.585157867E-3
6.584306500E0,-2.416148782E-3,-6.554231979E-3,-3.700475674E-3,7.905014357E-3
6.594331500E0,1.258254284E-3,-9.566592984E-3,-7.718219422E-3,1.235612464E-2
6.604356500E0,-4.104824038E-4,-1.367105637E-2,-1.430395059E-2,1.979063618E-2
6.614380500E0,-6.300515961E-3,-1.432764530E-2,-1.422079094E-2,2.114731227E-2
6.624405500E0,-1.631187089E-2,-1.576495357E-2,-1.056107506E-2,2.502293347E-2
6.634430500E0,-2.563426644E-2,-9.007714689E-3,-3.866421292E-3,2.744455781E-2
6.644455500E0,-3.075738996E-2,-3.613481764E-3,-9.159049951E-4,3.098246552E-2
6.654479500E0,-3.740302101E-2,-4.957209807E-3,-3.143422306E-3,3.786081105E-2
6.664504500E0,-3.855377436E-2,-6.386261899E-3,-7.631647401E-3,3.981733166E-2
6.674529500E0,-3.322774917E-2,-6.295401603E-3,-9.328937158E-3,3.508196780E-2
6.684554500E0,-2.007705905E-2,-4.231983796E-3,-8.840513416E-3,2.234172474E-2
6.694578500E0,8.707643719E-4,4.768464714E-5,-1.292922720E-2,1.295860411E-2
6.704603500E0,1.810088381E-2,6.850996055E-3,-1.163573004E-2,2.258247895E-2
6.714628500E0,2.190294862E-2,3.224771470E-3,-9.552795440E-3,2.411211749E-2
6.724652500E0,1.315446291E-2,-3.129716497E-4,-8.279005066E-3,1.554605322E-2
6.734677500E0,-4.638623446E-3,-6.641615648E-3,-8.262433112E-3,1.157133038E-2
6.744702500E0,-2.000373229E-2,-6.657061633E-3,-9.733030573E-3,2.322063004E-2
6.754727500E0,-3.007141873E-2,-1.254283916E-2,-1.068263315E-2,3.428894413E-2
6.764752500E0,-3.212098777E-2,-1.711974666E-2,-1.547712274E-2,3.955230599E-2
6.774776500E0,-3.089672513E-2,-1.182406396E-2,-1.733137108E-2,3.734692137E-2
6.784801500E0,-2.862291783E-2,-9.934019297E-3,-1.422479376E-2,3.347089664E-2
6.794826500E0,-2.289846167E-2,-1.078382134E-2,-5.527819041E-3,2.590727954E-2
6.804850500E0,-1.691780053E-2,-6.320096552E-3,-3.790639108E-3,1.845330702E-2
6.814875500E0,-9.926648811E-3,1.996291336E-3,3.899150994E-3,1.085020342E-2
6.824899875E0,-1.721982029E-3,6.834455766E-3,-5.830974318E-3,9.147418719E-3
6.834924875E0,4.815403372E-5,-4.905854352E-3,-2.229300141E-2,2.282646792E-2
6.844948875E0,-1.298056263E-2,-2.149787918E-2,-2.743263543E-2,3.719144125E-2
6.854973875E0,-3.535549715E-2,-3.706174716E-2,-1.783696935E-2,5.423782589E-2
6.864998875E0,-4.485099763E-2,-1.667151973E-2,-6.974733435E-3,4.835492182E-2
6.875023875E0,-4.497006908E-2,-2.548070624E-3,-9.476035833E-3,4.602819823E-2
6.885048875E0,-4.396818578E-2,1.486884896E-3,-5.188080017E-3,4.429817561E-2
6.895072875E0,-3.535781428E-2,-4.336943850E-3,-2.106939210E-3,3.568505718E-2
6.905097875E0,-2.506283298E-2,2.640538383E-3,-1.696812455E-3,2.525860670E-2
6.915122875E0,-1.484198496E-2,1.143537741E-2,6.211842410E-4,1.874668621E-2
6.925146875E0,-4.184280988E-3,6.821184419E-3,-1.109186560E-4,8.003066113E-3
6.935171875E0,-3.489609109E-3,1.436626539E-3,2.288558520E-3,4.413475688E-3
6.945196875E0,-4.585233517E-3,3.068877850E-3,-4.659486003E-4,5.537100844E-3
6.955221875E0,1.734900405E-3,5.747871008E-3,-8.957506157E-3,1.078354381E-2
6.965245875E0,7.870025001E-3,1.570969122E-3,-1.341856737E-2,1.563531860E-2
6.975270875E0,9.630514309E-3,6.334756501E-3,-1.288894378E-2,1.729164010E-2
6.985295875E0,9.412666783E-3,1.559589803E-2,-8.489934728E-3,2.009749544E-2
6.995320875E0,8.749555796E-3,1.577004418E-2,-2.731426619E-3,1.824033200E-2
7.005344875E0,5.664615892E-4,1.156011783E-2,-1.499182079E-3,1.167067906E-2
7.015369875E0,-1.060526166E-2,6.245563272E-4,-2.370363567E-3,1.088486421E-2
7.025394875E0,-2.362012863E-2,-1.128070056E-3,7.671066560E-4,2.365949009E-2
7.035419875E0,-2.956103906E-2,5.083114374E-3,6.516562309E-3,3.069460321E-2
7.045443875E0,-2.915490419E-2,8.319653571E-3,7.087011356E-3,3.113600494E-2
7.055468875E0,-1.481155772E-2,1.896443032E-2,4.038248211E-3,2.439957598E-2
7.065493875E0,5.222870968E-3,8.872914128E-3,-5.884689745E-3,1.185902861E-2
7.075518875E0,2.095599845E-2,2.006928669E-3,-8.361224085E-3,2.265152759E-2
7.085542875E0,2.309558168E-2,3.818144556E-3,-8.844854310E-3,2.502429957E-2
7.095567875E0,2.334102616E-2,5.160659086E-3,-7.424077019E-3,2.503103721E-2
7.105592875E0,2.531070076E-2,2.484182362E-3,-2.766208258E-3,2.558231114E-2
7.115617875E0,2.380295843E-2,7.905238308E-3,3.931828309E-3,2.538765244E-2
7.125641875E0,1.611893997E-2,7.943321019E-3,6.646655034E-3,1.915971288E-2
7.135666875E0,8.638879284E-3,3.268201603E-3,9.976238012E-3,1.359546623E-2
7.145691875E0,2.139967401E-3,-2.299136715E-3,6.988170557E-3,7.661593688E-3
7.155716875E0,1.039815485E-3,1.115035964E-3,8.044114336E-3,8.187325381E-3
7.165740875E0,-3.292348702E-3,3.062605625E-3,1.356111933E-2,1.428716454E-2
7.175765875E0,-2.747159684E-3,8.032004349E-3,1.721594110E-2,1.919501519E-2
7.185790875E0,1.499783248E-3,1.064243447E-2,2.045168169E-2,2.310372362E-2
7.195815875E0,6.850969046E-3,1.390119921E-2,2.087994106E-2,2.600290475E-2
7.205839875E0,1.253122557E-2,1.500028558E-2,2.007779852E-2,2.802067406E-2
7.215864875E0,1.547589432E-2,1.112869941E-2,1.623256691E-2,2.503692242E-2
7.225889875E0,1.743065380E-2,5.836465862E-3,1.046229526E-2,2.115068906E-2
7.235914875E0,1.370441727E-2,4.841286689E-3,1.225791499E-2,1.901330033E-2
7.245938875E0,1.308017410E-2,8.653068915E-3,1.904338412E-2,2.467016487E-2
7.255963875E0,1.244562119E-2,8.215392940E-3,2.393381484E-2,2.819953299E-2
7.265988875E0,1.087009534E-2,1.085218880E-2,2.788488008E-2,3.183544427E-2
7.276013875E0,7.813594304E-3,1.111343130E-2,2.913907543E-2,3.215037058E-2
7.286037875E0,5.731534678E-3,6.045701914E-3,2.484046668E-2,2.620018676E-2
7.296062875E0,-2.637083875E-3,-2.130483976E-3,1.584246382E-2,1.620113679E-2
7.306087875E0,-5.117019638E-3,-8.506624028E-3,9.244214743E-3,1.356473548E-2
7.316112875E0,6.413197843E-4,-8.825348690E-3,9.869798087E-3,1.325560202E-2
7.326136875E0,1.390386187E-2,3.646501806E-3,1.337718219E-2,1.963576720E-2
7.336161875E0,2.200469188E-2,1.167442556E-2,1.647955924E-2,2.986761708E-2
7.346186875E0,2.450992726E-2,1.174713019E-2,2.459554188E-2,3.665613567E-2
7.356211875E0,1.879939064E-2,1.536944229E-2,2.783694305E-2,3.693957557E-2
7.366235875E0,1.423872821E-2,1.222611312E-2,2.018994279E-2,2.756543149E-2
7.376260875E0,6.009540055E-3,-4.240048584E-4,1.489163470E-2,1.606409461E-2
7.386285875E0,-5.437258631E-3,-4.442182370E-3,1.477312390E-2,1.635670980E-2
7.396310875E0,-3.870214801E-3,5.720380694E-3,1.077561826E-2,1.279903382E-2
7.406334875E0,2.676634118E-3,-1.019280870E-3,8.516194299E-3,8.984924542E-3
7.416359875E0,7.244722452E-3,-3.098098328E-3,4.856154788E-3,9.255617537E-3
7.426384875E0,1.478626207E-2,-9.175022133E-4,2.771159634E-4,1.481729224E-2
7.436409875E0,1.825915463E-2,-1.702809241E-4,-4.471491557E-3,1.879946702E-2
7.446433875E0,1.927275397E-2,-5.912056658E-3,-1.037012693E-2,2.267004614E-2
7.456458875E0,1.693828776E-2,-1.022766531E-2,-1.032873057E-2,2.232024653E-2
7.466483875E0,1.076667849E-2,-6.538121495E-3,2.911570482E-4,1.259972900E-2
7.476508875E0,1.285513677E-2,4.046865739E-3,1.395434886E-2,1.939988443E-2
7.486532875E0,1.621817611E-2,5.616000388E-3,1.505237073E-2,2.282854707E-2
7.496557875E0,1.250461675E-2,3.145724302E-3,7.972344756E-3,1.515979229E-2
7.506582875E0,4.683179315E-3,-1.613891218E-4,-6.599672604E-3,8.094065322E-3
7.516607875E0,1.812378643E-3,-7.515840232E-3,-1.873818226E-2,2.027047225E-2
7.526631875E0,9.539806284E-3,-1.243895944E-2,-2.254144289E-2,2.745637018E-2
7.536656875E0,2.258208580E-2,-1.675644517E-2,-2.283247001E-2,3.622224097E-2
7.546681875E0,3.066984005E-2,-4.122941755E-3,-1.466855034E-2,3.424622763E-2
7.556706875E0,3.635615855E-2,3.594986629E-3,-1.027685590E-2,3.795138945E-2
7.566730875E0,3.140055016E-2,-1.560754608E-4,-1.439410262E-2,3.454285888E-2
7.576755875E0,1.620467380E-2,-3.317159833E-3,-1.089447271E-2,1.980617424E-2
7.586780875E0,-9.067653446E-5,2.933811862E-3,-8.623595349E-3,9.109438568E-3
7.596804875E0,-4.750023596E-3,1.119395904E-2,-6.484042387E-3,1.378079275E-2
7.606829875E0,-1.688187243E-3,1.435513236E-2,-2.387567889E-3,1.464992429E-2
7.616854875E0,1.970737241E-3,1.282886136E-2,-8.731906302E-3,1.564319906E-2
7.626879875E0,9.510129457E-4,1.639909483E-2,-6.094577722E-3,1.752080519E-2
7.636903875E0,1.091936417E-2,1.374304947E-2,-4.127114080E-3,1.803155548E-2
7.646928875E0,2.386259288E-2,9.969350882E-3,-1.023800299E-2,2.781416907E-2
7.656953875E0,3.287438303E-2,4.315845203E-3,-1.368926279E-2,3.587126281E-2
7.666978875E0,3.083706647E-2,1.303010969E-3,-1.388580352E-2,3.384432073E-2
7.677002875E0,1.922521926E-2,5.350247025E-3,-1.453618519E-2,2.468876017E-2
7.687027875E0,9.693233296E-3,5.493669305E-4,-1.348583400E-2,1.661710849E-2
7.697052875E0,1.000524778E-2,-5.061435513E-5,-1.256823912E-2,1.606450060E-2
7.707077875E0,1.850312762E-2,4.445600323E-3,-1.059590187E-2,2.178077662E-2
7.717101875E0,3.051807731E-2,1.470461395E-2,-4.949448630E-3,3.423559195E-2
7.727126875E0,3.563693911E-2,2.158275992E-2,-3.636243753E-3,4.182139672E-2
7.737151875E0,3.370148316E-2,1.553026866E-2,-6.344598718E-3,3.764615711E-2
7.747176875E0,2.551705763E-2,7.618816569E-3,-1.040964760E-2,2.859243535E-2
7.757200875E0,1.608672366E-2,1.968239900E-3,-1.151785813E-2,1.988259798E-2
7.767225875E0,9.196592495E-3,4.157624673E-3,-6.895408966E-3,1.222333102E-2
7.777250875E0,1.199552789E-2,3.728395794E-3,-5.058904644E-3,1.354201391E-2
7.787275875E0,1.419769600E-2,1.046965551E-2,-1.267301850E-4,1.764098406E-2
7.797299875E0,1.013352443E-2,1.565977186E-2,1.991083845E-3,1.875849639E-2
7.807324875E0,6.577672437E-3,1.284480933E-2,1.819043420E-3,1.454523360E-2
7.817349875E0,8.035296574E-3,6.887868047E-3,1.324301120E-3,1.066595006E-2
7.827375042E0,8.224647492E-3,5.153884180E-3,3.031920176E-3,1.016857357E-2
7.837399042E0,8.985650726E-3,4.448080435E-4,-3.027117811E-3,9.492271351E-3
7.847424042E0,8.379515260E-3,-5.682583433E-4,-1.608185703E-3,8.551342281E-3
7.857449042E0,1.243504882E-2,-1.776781864E-4,-3.011980094E-3,1.279585998E-2
7.867474042E0,1.589476131E-2,5.449314602E-3,-2.684677485E-3,1.701605007E-2
7.877498042E0,1.616067253E-2,8.769818582E-3,2.073287033E-4,1.838804067E-2
7.887523042E0,1.382641122E-2,1.002470031E-2,6.442055106E-3,1.825278986E-2
7.897548042E0,9.686101228E-3,3.948669881E-3,6.352968980E-3,1.223816840E-2
7.907573042E0,7.715362590E-3,-2.806704491E-3,3.039463889E-3,8.754584555E-3
7.917597042E0,1.382389478E-2,2.713702852E-3,2.762130462E-3,1.435596095E-2
7.927622042E0,2.816368639E-2,1.033833250E-2,5.521431100E-3,3.050509059E-2
7.937647042E0,3.967835754E-2,1.795210317E-2,1.051975042E-2,4.480307148E-2
7.947672042E0,4.506486654E-2,1.740295999E-2,1.156530716E-2,4.967354973E-2
7.957696042E0,3.890837729E-2,1.245369669E-2,1.313858479E-2,4.291362016E-2
7.967721042E0,2.619311400E-2,7.194486447E-3,1.579269208E-2,3.142051844E-2
7.977746042E0,8.457447402E-3,-1.917666523E-3,1.424213219E-2,1.667465714E-2
7.987771042E0,-5.551046692E-3,-1.003364939E-2,4.665404558E-3,1.237958962E-2
7.997795042E0,-5.246429238E-3,-7.005296648E-3,3.454186488E-3,9.409070367E-3
8.007820042E0,-1.724398695E-3,-2.508016536E-3,-4.097940400E-4,3.071095726E-3
8.017845042E0,1.207773946E-2,6.208184175E-3,3.385111690E-3,1.399543934E-2
8.027869042E0,3.212574869E-2,1.608504914E-2,7.284245454E-3,3.665859745E-2
8.037894042E0,4.503941908E-2,2.842587233E-2,1.136101317E-2,5.445780118E-2
8.047919042E0,4.514487833E-2,2.741972916E-2,1.409554575E-2,5.466796133E-2
8.057944042E0,3.047275543E-2,2.276701108E-2,1.930288784E-2,4.265591514E-2
8.067968042E0,2.427238226E-2,3.744317219E-3,1.018235926E-2,2.658662995E-2
8.077993042E0,1.873992197E-2,-7.986759767E-3,1.911274157E-3,2.046035132E-2
8.088018042E0,1.877347752E-2,-5.528928712E-3,-3.429695265E-3,1.986895369E-2
8.098043042E0,2.169984020E-2,-3.698524320E-3,-3.303398378E-3,2.225925847E-2
8.108067042E0,2.598646469E-2,1.193822548E-2,1.102002338E-3,2.861873484E-2
8.118092042E0,2.683093213E-2,3.064283356E-2,7.373264059E-3,4.139139029E-2
8.128117042E0,2.625142783E-2,3.695772216E-2,1.508950721E-2,4.777765082E-2
8.138142042E0,2.290199883E-2,4.129796475E-2,2.028166503E-2,5.139425434E-2
8.148166042E0,1.655888185E-2,3.998236358E-2,1.907738671E-2,4.729410798E-2
8.158191042E0,1.807102375E-2,4.300824553E-2,1.821452007E-2,5.008033370E-2
8.168216042E0,2.223833837E-2,3.508986905E-2,1.482831221E-2,4.411033265E-2
8.178241042E0,2.176646702E-2,2.308081836E-2,1.627377607E-2,3.565584174E-2
8.188265042E0,1.349415537E-2,2.067598328E-2,1.641492359E-2,2.964857889E-2
8.198290042E0,4.704580177E-3,2.099834569E-2,1.688836701E-2,2.735471690E-2
8.208315042E0,-3.006336512E-3,2.421837300E-2,1.037507318E-2,2.651810313E-2
8.218340042E0,-6.809112616E-3,1.940931007E-2,2.219130751E-3,2.068839949E-2
8.228364042E0,-3.756331047E-3,2.059494890E-2,-8.006277494E-4,2.095001069E-2
8.238389042E0,8.820732124E-3,1.757409796E-2,-2.438782481E-3,1.981418417E-2
8.248414042E0,1.786136627E-2,1.470054686E-2,-1.495563984E-2,2.754642710E-2
8.258439042E0,1.542278938E-2,6.906286813E-3,-1.656199433E-2,2.366133737E-2
8.268463042E0,8.108416572E-3,2.270255471E-3,-1.048892271E-2,1.345057541E-2
8.278488042E0,5.398778245E-3,2.768075326E-3,-3.945722245E-3,7.237248896E-3
8.288513042E0,1.481305249E-2,1.901628636E-2,5.250439513E-3,2.467007876E-2
8.298538042E0,2.495812625E-2,2.647136338E-2,1.044499595E-2,3.785154007E-2
8.308562042E0,3.082826547E-2,3.703559190E-2,1.578836143E-2,5.070788278E-2
8.318587042E0,3.151525185E-2,4.429859295E-2,1.679810323E-2,5.690125402E-2
8.328612042E0,3.021829389E-2,3.952860460E-2,1.473522000E-2,5.189202805E-2
8.338637042E0,2.300827950E-2,1.337029785E-2,6.605116650E-4,2.661920483E-2
8.348661042E0,1.869156025E-2,1.054921187E-2,-4.903630819E-3,2.201603713E-2
8.358686042E0,1.758987084E-2,-5.194287747E-3,-1.300990768E-2,2.248648214E-2
8.368711042E0,6.067704409E-3,-1.872474328E-2,-1.810506918E-2,2.674372034E-2
8.378735042E0,-7.110613398E-3,-2.580259740E-2,-1.883374713E-2,3.272682213E-2
8.388760042E0,-1.837791502E-2,-2.671526372E-2,-1.080831140E-2,3.418000398E-2
8.398785042E0,-1.935954392E-2,-2.343612723E-2,-1.009021141E-2,3.202899259E-2
8.408810042E0,-1.233039796E-2,-2.825991064E-2,-1.258905604E-2,3.330383755E-2
8.418834042E0,-7.535248995E-3,-3.325579688E-2,-1.408674382E-2,3.689396095E-2
8.428859042E0,-8.552576415E-3,-2.578669228E-2,-1.481192186E-2,3.094338526E-2
8.438884042E0,-3.125467803E-3,-1.634463295E-2,-1.589239575E-2,2.301051538E-2
8.448909042E0,6.196395028E-3,-1.319517940E-2,-1.504418068E-2,2.094839953E-2
8.458933042E0,1.257499121E-2,-1.295971125E-2,-1.026022620E-2,2.076913001E-2
8.468958042E0,1.482056826E-2,-1.014634781E-2,-8.494017646E-3,1.986821465E-2
8.478983042E0,8.176119067E-3,-1.134178042E-2,-1.131571177E-2,1.798694635E-2
8.489008042E0,-6.355152931E-3,-2.097549848E-2,-1.000144146E-2,2.409125021E-2
8.499032042E0,-2.805324830E-2,-2.125740983E-2,-7.280117832E-3,3.594248640E-2
8.509057042E0,-4.117144644E-2,-2.099109255E-2,-1.351920888E-3,4.623355555E-2
8.519082042E0,-4.572492093E-2,-2.399007790E-2,-6.520317867E-3,5.204619848E-2
8.529107042E0,-4.434912652E-2,-2.829081751E-2,-6.495550275E-3,5.300384469E-2
8.539131042E0,-3.773756325E-2,-1.908986270E-2,-4.369814880E-3,4.251637120E-2
8.549156042E0,-3.104450926E-2,-6.208686158E-3,-1.689343480E-3,3.170430918E-2
8.559181042E0,-1.811137982E-2,-4.791780375E-3,-4.507017788E-3,1.926905414E-2
8.569206042E0,-1.086518634E-2,-1.202226337E-2,-3.596216440E-3,1.659879102E-2
8.579230042E0,-1.023208443E-2,-1.094791293E-2,-1.836703625E-3,1.509721264E-2
8.589255042E0,-5.666094832E-3,-7.765435614E-3,6.560152397E-4,9.635194700E-3
8.599280042E0,2.355760662E-3,-1.034479588E-2,-8.438467048E-4,1.064314274E-2
8.609305042E0,2.069204580E-3,-9.388455190E-3,1.450466458E-3,9.722579462E-3
8.619329042E0,-6.342260633E-3,-2.156168921E-3,9.238956496E-3,1.141190832E-2
8.629354042E0,-1.263158210E-2,1.833246322E-3,1.506941393E-2,1.974854158E-2
8.639379042E0,-1.288961340E-2,-2.919873921E-3,1.490755659E-2,1.992242557E-2
8.649403042E0,-1.180410944E-2,-8.127808105E-4,5.167044699E-3,1.291107909E-2
8.659428042E0,-1.083184779E-2,3.945178352E-3,2.542790025E-5,1.152796623E-2
8.669453042E0,-1.380926184E-2,3.201091196E-3,2.163946163E-3,1.433964297E-2
8.679478042E0,-1.565387473E-2,-5.235762801E-4,7.245127577E-3,1.725716662E-2
8.689502042E0,-1.887363754E-2,2.593931276E-4,1.733983867E-2,2.563106482E-2
8.699527042E0,-2.222186141E-2,-2.414139686E-3,1.637708768E-2,2.771007390E-2
8.709552042E0,-2.494414523E-2,-4.893808626E-3,1.691078767E-2,3.053087755E-2
8.719577042E0,-2.127247490E-2,-4.909078591E-3,1.328749396E-2,2.555728344E-2
8.729601042E0,-1.263877191E-2,-9.200229309E-3,9.471716359E-3,1.827829821E-2
8.739626042E0,-8.666500449E-3,-1.258748956E-2,4.906507675E-3,1.605076138E-2
8.749651042E0,-1.097119972E-2,-1.055549737E-2,5.017561372E-3,1.603002402E-2
8.759676042E0,-1.139727701E-2,-8.406236768E-3,8.603835478E-3,1.657071889E-2
8.769700042E0,-4.868004471E-3,-8.186525665E-3,8.588921279E-3,1.282521886E-2
8.779725042E0,3.317072988E-3,-4.355609417E-5,8.551340550E-3,9.172256840E-3
8.789750042E0,5.393273663E-3,4.781825468E-3,1.026907936E-2,1.254620446E-2
8.799775042E0,9.615070885E-4,3.706174670E-3,1.303930022E-2,1.358983358E-2
8.809799042E0,-9.831494652E-3,3.098721150E-3,1.301948167E-2,1.660624169E-2
8.819824042E0,-2.351625636E-2,5.996936932E-3,1.625056937E-2,2.920716643E-2
8.829849375E0,-2.846867032E-2,-4.004031420E-3,7.567332592E-3,2.972813449E-2
8.839874375E0,-2.912298031E-2,-1.529082097E-2,-4.833466373E-4,3.289666871E-2
8.849898375E0,-2.552504838E-2,-1.451237872E-2,1.270078588E-3,2.938962964E-2
8.859923375E0,-1.997695304E-2,-8.097918704E-3,5.793496035E-3,2.232083190E-2
8.869948375E0,-1.047079917E-2,-3.910098225E-3,7.979950868E-3,1.373339431E-2
8.879973375E0,-2.866687952E-3,-9.164098650E-3,1.778674312E-3,9.765361549E-3
8.889997375E0,2.067084191E-3,-7.999764755E-3,-3.803502768E-4,8.271259851E-3
8.900022375E0,2.653127303E-3,-1.271178387E-2,-2.115901560E-3,1.315695911E-2
8.910047375E0,2.511713421E-3,-1.410674769E-2,2.722263336E-3,1.458491524E-2
8.920071375E0,6.669219583E-4,-9.866033681E-3,8.486458100E-3,1.303086246E-2
8.930096375E0,1.457614359E-3,-7.967999205E-3,1.395366155E-2,1.613438321E-2
8.940121375E0,3.585404251E-3,-1.096567139E-2,3.390692640E-3,1.202488542E-2
8.950146375E0,-5.385006079E-4,-1.760786027E-2,-7.348504383E-3,1.908735819E-2
8.960170375E0,-8.510646410E-3,-2.021900006E-2,1.795142889E-4,2.193789623E-2
8.970195375E0,-1.221243944E-2,-8.522663265E-3,1.172485016E-2,1.895393304E-2
8.980220375E0,-1.068569999E-2,-5.335981958E-3,1.436723210E-2,1.868352873E-2
8.990245375E0,-1.546154637E-2,-1.075951010E-2,1.230194978E-2,2.249809864E-2
9.000269375E0,-1.958955452E-2,-1.240930893E-2,9.424807504E-3,2.503135216E-2
9.010294375E0,-1.863401197E-2,-1.155869476E-2,8.831456304E-3,2.363946800E-2
9.020319375E0,-1.010401547E-2,-1.619749144E-2,5.055235233E-3,1.974855085E-2
9.030344375E0,2.047722694E-3,-1.601639763E-2,1.828548964E-3,1.624997700E-2
9.040368375E0,1.582155190E-2,-1.912104664E-3,1.031187549E-2,1.898189730E-2
9.050393375E0,2.753227018E-2,1.440455019E-2,1.605391875E-2,3.497492351E-2
9.060418375E0,3.269564360E-2,1.800029166E-2,2.067040838E-2,4.266475587E-2
9.070443375E0,2.736825868E-2,2.035452612E-2,2.085603029E-2,3.997877332E-2
9.080467375E0,2.081113122E-2,1.278446149E-2,1.636553742E-2,2.940027982E-2
9.090492375E0,1.181364246E-2,4.670875147E-3,7.719053421E-3,1.486482454E-2
9.100517375E0,3.342573764E-4,-3.839644138E-3,5.350413732E-3,6.594052032E-3
9.110542375E0,-1.245104708E-2,-1.318962080E-3,9.667663835E-3,1.581872177E-2
9.120566375E0,-2.644172125E-2,4.633502103E-3,1.101687737E-2,2.901733191E-2
9.130591375E0,-3.695135191E-2,2.821632661E-4,9.970519692E-3,3.827392438E-2
9.140616375E0,-4.217449203E-2,-1.073297113E-3,1.528189704E-2,4.487065992E-2
9.150640375E0,-3.548356518E-2,-9.412043728E-4,1.216360182E-2,3.752229301E-2
9.160665375E0,-2.244738303E-2,-5.119037814E-5,8.570577018E-3,2.402795072E-2
9.170690375E0,-6.562425755E-3,-3.356439760E-3,2.956633456E-3,7.941838644E-3
9.180715375E0,1.017254312E-2,-2.918379148E-3,-1.161375316E-3,1.064642489E-2
9.190739375E0,2.600103989E-2,1.178361359E-3,-4.660768900E-3,2.644173553E-2
9.200764375E0,3.949624673E-2,3.234602977E-3,4.775151610E-4,3.963135353E-2
9.210789375E0,4.620208591E-2,7.044521160E-3,5.011813715E-3,4.700400300E-2
9.220814375E0,4.071204737E-2,1.684005558E-2,9.727429599E-3,4.511852346E-2
9.230838375E0,2.497329935E-2,1.644537412E-2,1.714966074E-2,3.447066686E-2
9.240863375E0,6.248060148E-3,7.813965902E-3,1.564555429E-2,1.857093664E-2
9.250888375E0,-9.918392636E-3,5.022707395E-3,1.213950291E-2,1.646115528E-2
9.260913375E0,-1.693206653E-2,2.447254257E-3,7.341348566E-3,1.861664119E-2
9.270937375E0,-1.677893475E-2,8.454812691E-3,4.487238824E-3,1.931713802E-2
9.280962375E0,-1.068550255E-2,1.748275012E-2,3.253365401E-3,2.074634674E-2
9.290987375E0,1.829757122E-3,1.957892627E-2,1.078361645E-3,1.969378655E-2
9.301012375E0,1.007162035E-2,1.857211627E-2,2.508832607E-3,2.127569694E-2
9.311036375E0,1.389645226E-2,1.602560095E-2,6.083860062E-3,2.206682181E-2
9.321061375E0,1.658682711E-2,1.546133682E-2,1.175427996E-2,2.554092534E-2
9.331086375E0,1.598308980E-2,1.291588694E-2,1.346376352E-2,2.456729988E-2
9.341111375E0,1.211927459E-2,7.726068143E-3,1.472607628E-2,2.057732412E-2
9.351135375E0,7.713872474E-3,1.010533608E-2,1.765209250E-2,2.175357478E-2
9.361160375E0,2.777158516E-4,1.757881790E-2,2.021158859E-2,2.678806224E-2
9.371185375E0,-5.439558532E-3,2.060576528E-2,2.169310302E-2,3.041014762E-2
9.381210375E0,-5.168290809E-3,2.147345431E-2,2.015606500E-2,2.990129473E-2
9.391234375E0,-3.439899068E-3,1.600571722E-2,1.620606519E-2,2.303589456E-2
9.401259375E0,3.825556487E-4,6.539881229E-3,1.572984084E-2,1.703949202E-2
9.411284375E0,2.078456804E-3,1.364826807E-3,1.504221372E-2,1.524634148E-2
9.421308375E0,1.910292776E-3,-1.929591876E-3,1.359534822E-2,1.386383917E-2
9.431333375E0,4.283702001E-3,1.006809413E-3,1.169438474E-2,1.249489506E-2
9.441358375E0,9.764299728E-3,9.432932362E-3,1.559598465E-2,2.067743938E-2
9.451383375E0,1.581979543E-2,2.157721296E-2,1.910123602E-2,3.287399069E-2
9.461407375E0,2.032859623E-2,2.220841125E-2,1.998084038E-2,3.613446191E-2
9.471432375E0,1.520574093E-2,1.361785270E-2,1.742260717E-2,2.683668590E-2
9.481457375E0,2.683093306E-3,3.645809367E-3,1.191701181E-2,1.274778750E-2
9.491482375E0,-4.666432738E-3,-4.105321132E-3,7.073522080E-3,9.416154773E-3
9.501506375E0,-3.070212901E-3,-2.501713345E-3,5.656651221E-3,6.905250173E-3
9.511531375E0,6.971769035E-3,-2.002096735E-4,5.071288906E-3,8.623434267E-3
9.521556375E0,1.531506702E-2,-3.952414263E-4,5.500886589E-3,1.627781456E-2
9.531581375E0,1.929755881E-2,3.373930231E-3,6.043372676E-3,2.050125691E-2
9.541605375E0,2.043911815E-2,-6.737341173E-4,3.593078349E-3,2.076346985E-2
9.551630375E0,1.650189981E-2,-5.951320753E-3,-3.382796422E-4,1.754552220E-2
9.561655375E0,6.688762922E-3,-9.793581441E-3,-1.745957881E-3,1.198758340E-2
9.571680375E0,-5.718638189E-3,-1.074805856E-2,2.760110423E-3,1.248366112E-2
9.581704375E0,-1.285648160E-2,-7.783900946E-3,1.184531674E-2,1.913608533E-2
9.591729375E0,-9.999708273E-3,-9.300038218E-3,1.618706807E-2,2.117796140E-2
9.601754375E0,-2.605698071E-3,-2.333126031E-5,1.988310926E-2,2.005313543E-2
9.611778375E0,9.050425142E-3,2.166585997E-3,1.326195896E-2,1.620135320E-2
9.621803375E0,1.979159378E-2,9.408523329E-5,-5.813069642E-3,2.062784077E-2
9.631828375E0,2.513815649E-2,-1.273276377E-2,-1.508220192E-2,3.196127344E-2
9.641853375E0,2.692726068E-2,-1.407458447E-2,-1.098290272E-2,3.230782332E-2
9.651877375E0,2.878161892E-2,-7.039577235E-3,-5.021683406E-3,3.005252967E-2
9.661902375E0,2.475748211E-2,-1.098969579E-2,-4.137804266E-3,2.740123643E-2
9.671927375E0,1.352000888E-2,-1.029940508E-2,-2.055745106E-3,1.712000214E-2
9.681952375E0,3.823244479E-3,-1.119965874E-2,-4.021200351E-3,1.249878420E-2
9.691976375E0,3.349468112E-3,-1.361514628E-2,-3.628916573E-3,1.448309982E-2
9.702001375E0,5.892182700E-3,-2.184752841E-3,-3.878678894E-3,7.384789226E-3
9.712026375E0,1.848174259E-2,-1.466355752E-4,-4.945541266E-3,1.913255575E-2
9.722051375E0,3.328899667E-2,3.274608403E-3,-8.799333125E-3,3.458769467E-2
9.732075375E0,4.398877919E-2,5.750549026E-3,-1.165104657E-2,4.586750914E-2
9.742100375E0,4.686406627E-2,2.328180941E-3,-1.482880488E-2,4.920929372E-2
9.752125375E0,4.012067616E-2,-4.634653218E-3,-1.689994521E-2,4.378078133E-2
9.762150375E0,3.166013956E-2,-7.793384604E-3,-1.873714291E-2,3.760560869E-2
9.772174375E0,2.500569820E-2,-7.965158671E-3,-1.509553660E-2,3.027546730E-2
9.782199375E0,1.977524906E-2,1.161761000E-3,-9.671209380E-3,2.204410250E-2
9.792224375E0,1.426543668E-2,2.349530812E-3,-6.989406422E-3,1.605848003E-2
9.802248375E0,9.231470525E-3,-4.800035618E-3,-1.467567310E-2,1.798987968E-2
9.812273375E0,-2.226247452E-3,-1.329125836E-2,-1.744269766E-2,2.204226459E-2
9.822298375E0,-9.732436389E-3,-1.117007993E-2,-1.867809892E-2,2.384035199E-2
9.832323125E0,-6.839443929E-3,-1.512886863E-2,-2.032633126E-2,2.624538820E-2
9.842347125E0,7.807448972E-3,-1.240291726E-2,-1.920017973E-2,2.415440990E-2
9.852372125E0,2.949756384E-2,-6.811077707E-3,-2.077996731E-2,3.671926052E-2
9.862397125E0,4.775187746E-2,1.038279152E-3,-1.784314960E-2,5.098723185E-2
9.872422125E0,6.047592685E-2,3.976811189E-3,-1.930442639E-2,6.360671060E-2
9.882446125E0,6.216595322E-2,4.961278290E-3,-2.336915955E-2,6.659833061E-2
9.892471125E0,4.984217137E-2,-8.997946046E-3,-3.041215613E-2,5.907710488E-2
9.902496125E0,2.650231682E-2,-1.319122780E-2,-2.907320485E-2,4.149255991E-2
9.912521125E0,1.546244882E-2,-1.565678045E-2,-2.577487938E-2,3.389050759E-2
9.922545125E0,1.351775881E-2,-2.009593137E-2,-2.367392555E-2,3.386784628E-2
9.932570125E0,1.189855672E-2,-1.780294999E-2,-2.252769843E-2,3.108082813E-2
9.942595125E0,7.591535337E-3,-5.973483436E-3,-2.326100506E-2,2.518706552E-2
9.952620125E0,8.197670802E-3,2.188985236E-4,-2.539046854E-2,2.668193426E-2
9.962644125E0,2.283885377E-3,-6.360211410E-4,-2.312326245E-2,2.324448153E-2
9.972669125E0,5.396321882E-3,3.645276651E-3,-2.151178382E-2,2.247587985E-2
9.982694125E0,1.731662080E-2,8.177592419E-3,-2.004555240E-2,2.772296061E-2
9.992718125E0,2.836021781E-2,1.026657596E-2,-1.952810213E-2,3.593120244E-2
1.000274312E1,3.378722817E-2,6.500970107E-3,-1.865703054E-2,3.913980312E-2
1.001276812E1,3.702030703E-2,3.070818493E-3,-1.735980436E-2,4.100360797E-2
1.002279312E1,3.811952844E-2,4.348795395E-3,-1.823766343E-2,4.248085260E-2
1.003281712E1,3.877945989E-2,1.212923322E-3,-1.620833389E-2,4.204792243E-2
1.004284212E1,3.664566576E-2,-3.920350224E-3,-1.434222050E-2,3.954710172E-2
1.005286712E1,3.474736586E-2,-4.441260826E-4,-1.025666483E-2,3.623224884E-2
1.006289212E1,2.314280905E-2,2.866597380E-3,-5.390550010E-3,2.393459882E-2
1.007291612E1,3.637817688E-3,3.434649669E-3,-2.548424294E-3,5.614713017E-3
1.008294112E1,-1.245629787E-2,-2.342130290E-3,-8.357698098E-4,1.270210385E-2
1.009296612E1,-1.898503676E-2,-1.141311135E-3,-2.914100653E-3,1.924126281E-2
1.010299112E1,-1.315116510E-2,4.886960611E-3,-1.711157383E-3,1.413377469E-2
1.011301512E1,-1.776537392E-3,7.290197536E-3,1.868930180E-3,7.732785090E-3
1.012304012E1,1.009282563E-2,6.011066027E-3,3.992194310E-3,1.240708102E-2
1.013306512E1,1.393443532E-2,8.336272091E-3,1.175450999E-2,2.004570840E-2
1.014309012E1,1.591334119E-2,4.907718860E-3,1.402547956E-2,2.177232668E-2
1.015311412E1,1.415166073E-2,-3.658072324E-3,1.492296532E-2,2.088889390E-2
1.016313912E1,1.028977334E-2,-3.914344124E-3,1.183831971E-2,1.616624072E-2
1.017316412E1,1.010921039E-2,2.398679499E-3,1.224312093E-2,1.605751563E-2
1.018318812E1,1.004120894E-2,1.070907526E-2,1.492474973E-2,2.093462023E-2
1.019321312E1,9.156506509E-3,1.869669557E-2,1.989260875E-2,2.879451196E-2
1.020323812E1,1.000863966E-2,2.363431267E-2,2.172000334E-2,3.362308951E-2
1.021326312E1,8.562010713E-3,2.811055444E-2,2.951108292E-2,4.164631212E-2
1.022328713E1,5.829134025E-3,2.461173758E-2,2.833860926E-2,3.798411780E-2
1.023331212E1,-1.543294638E-3,1.541610900E-2,2.336408943E-2,2.803424424E-2
1.024333712E1,-7.765296847E-3,1.473376248E-2,2.055406943E-2,2.645474177E-2
1.025336212E1,-1.346259750E-2,1.313240360E-2,2.031971142E-2,2.768740197E-2
1.026338612E1,-7.668644190E-3,6.391839590E-3,2.262845635E-2,2.473278703E-2
1.027341112E1,-7.737199194E-4,1.252696384E-2,3.427126259E-2,3.649716297E-2
1.028343612E1,4.138845485E-3,1.533418708E-2,3.638822585E-2,3.970353027E-2
1.029346112E1,7.366862614E-3,1.697762311E-2,3.074419312E-2,3.588475668E-2
1.030348512E1,6.156554911E-3,1.527185366E-2,1.596020535E-2,2.293165579E-2
1.031351012E1,4.575436469E-3,4.646640271E-3,1.048527844E-2,1.234775076E-2
1.032353512E1,1.226106891E-3,-5.645071156E-3,1.647773758E-2,1.746098514E-2
1.033356012E1,-1.565684914E-3,2.209922066E-3,2.491196804E-2,2.505875648E-2
1.034358412E1,-6.430787034E-3,7.479311898E-3,2.508677170E-2,2.695628392E-2
1.035360912E1,-1.472120732E-2,-6.683631800E-4,2.434481308E-2,2.845752235E-2
1.036363412E1,-2.391534671E-2,-3.119240748E-3,2.308181301E-2,3.338328269E-2
1.037365812E1,-2.364317141E-2,-9.306550492E-4,1.865590736E-2,3.013152092E-2
1.038368312E1,-1.801380143E-2,1.638925285E-3,2.031696960E-2,2.720224939E-2
1.039370812E1,-1.215271652E-2,-1.607468119E-3,2.616101131E-2,2.889067298E-2
1.040373312E1,-1.459523337E-3,6.002278067E-3,2.947447821E-2,3.011482054E-2
1.041375712E1,-4.544529133E-3,-8.909826167E-3,3.248917311E-2,3.399388352E-2
1.042378212E1,-1.690586843E-2,-1.038387138E-2,3.694959357E-2,4.193930898E-2
1.043380712E1,-2.135281451E-2,-8.489831351E-3,3.939197958E-2,4.560425395E-2
1.044383212E1,-2.039352246E-2,-9.839018807E-3,3.328264505E-2,4.025464583E-2
1.045385612E1,-1.992400549E-2,-5.098325666E-3,2.860533446E-2,3.523101019E-2
1.046388112E1,-1.434378698E-2,5.971754435E-3,2.804368734E-2,3.206016962E-2
1.047390613E1,-1.034318656E-2,1.423660852E-2,2.693128213E-2,3.217073962E-2
1.048393112E1,-9.822322056E-3,1.118696388E-2,2.171254531E-2,2.632604784E-2
1.049395512E1,-1.291664969E-2,5.211363547E-3,1.922275499E-2,2.373841735E-2
1.050398012E1,-1.857536845E-2,-1.833573682E-3,2.081623115E-2,2.795928798E-2
1.051400512E1,-1.938896440E-2,2.844268689E-3,2.317605913E-2,3.035047811E-2
1.052402912E1,-1.489599887E-2,3.530509304E-3,1.476178132E-2,2.126653395E-2
1.053405412E1,-1.184188575E-2,1.123278169E-3,1.259556785E-2,1.732455891E-2
1.054407912E1,-6.025383715E-3,3.749450203E-3,1.232406124E-2,1.422132593E-2
1.055410412E1,-2.748203115E-4,5.896224175E-3,1.120633259E-2,1.266581525E-2
1.056412812E1,5.825209431E-3,5.338204093E-3,1.031349786E-2,1.299221790E-2
1.057415312E1,1.157017983E-2,1.044401620E-2,1.197690889E-2,1.965687875E-2
1.058417812E1,1.354624517E-2,9.641871788E-3,1.186079532E-2,2.042412582E-2
1.059420312E1,1.329857111E-2,1.043016743E-2,1.230660826E-2,2.090676907E-2
1.060422712E1,1.297197863E-2,1.294778753E-2,8.037913591E-3,2.001313285E-2
1.061425212E1,1.081801392E-2,1.285457704E-2,6.103126798E-3,1.787505896E-2
1.062427712E1,3.018355230E-3,1.097141113E-2,7.269473746E-3,1.350287299E-2
1.063430212E1,-7.454792038E-3,1.153546851E-2,8.651654236E-3,1.623243910E-2
1.064432612E1,-1.698748767E-2,3.783405758E-3,8.844647557E-3,1.952221010E-2
1.065435112E1,-2.497057989E-2,-2.298721345E-3,8.368207142E-3,2.643559855E-2
1.066437612E1,-2.521898225E-2,-3.934005275E-3,7.189449854E-3,2.651719541E-2
1.067440112E1,-1.903086156E-2,-2.091896953E-3,3.502835520E-3,1.946328803E-2
1.068442512E1,-9.042083286E-3,3.084931988E-3,-2.858001506E-3,9.972173691E-3
1.069445012E1,1.806036918E-3,-1.481590094E-3,-2.795683453E-3,3.643175061E-3
1.070447512E1,1.500521600E-2,2.708464628E-3,2.771072555E-3,1.549745563E-2
1.071449912E1,2.253104188E-2,-8.537797257E-4,-1.152296085E-3,2.257663779E-2
1.072452412E1,2.512883395E-2,-2.177058486E-3,9.662732482E-4,2.524146516E-2
1.073454912E1,1.713136211E-2,-5.394423380E-3,-2.831660677E-3,1.818245510E-2
1.074457412E1,1.370265149E-2,-7.422450930E-3,-7.692598738E-3,1.737905380E-2
1.075459813E1,1.524781808E-2,-1.121372730E-2,-1.281625405E-2,2.285825899E-2
1.076462312E1,1.417934988E-2,-7.947744802E-3,-1.361557469E-2,2.120387900E-2
1.077464812E1,8.298557252E-3,-4.488565028E-3,-8.991261944E-3,1.303288379E-2
1.078467312E1,3.827176988E-3,-5.378696136E-3,-6.461568177E-3,9.237397855E-3
1.079469712E1,-4.806791432E-3,-2.398619195E-3,-2.143252175E-3,5.783783174E-3
1.080472213E1,-1.200653799E-2,-6.107366644E-3,-5.599372555E-3,1.458800380E-2
1.081474712E1,-1.233197656E-2,-4.595756531E-3,-2.625687048E-3,1.341986797E-2
1.082477254E1,-3.978035413E-3,1.786847133E-4,-7.323849946E-3,8.336394425E-3
1.083479654E1,1.017799787E-2,-4.418317694E-4,-1.108263619E-2,1.505362684E-2
1.084482154E1,2.228334174E-2,-2.574139740E-3,-1.468680240E-2,2.681185706E-2
1.085484654E1,2.503891475E-2,-3.444727045E-3,-1.354989875E-2,2.867774665E-2
1.086487054E1,2.230620012E-2,-3.457847051E-3,-1.400653832E-2,2.656513477E-2
1.087489554E1,1.697774790E-2,-4.989431240E-3,-1.363396179E-2,2.233882857E-2
1.088492054E1,1.550840400E-2,-8.176052012E-3,-1.204731874E-2,2.127196065E-2
1.089494554E1,1.094374619E-2,-6.235405803E-3,-1.483724639E-2,1.946252159E-2
1.090496954E1,5.348730367E-3,-4.436603282E-3,-1.639924012E-2,1.781087987E-2
1.091499454E1,-6.197138224E-3,-1.020767353E-2,-1.635689475E-2,2.025213882E-2
1.092501954E1,-2.186793648E-2,-1.170722581E-2,-1.600972377E-2,2.952248359E-2
1.093504454E1,-2.947419137E-2,-9.761787020E-3,-1.482728031E-2,3.440739287E-2
1.094506854E1,-2.957765944E-2,-8.513888344E-3,-1.329001784E-2,3.352534574E-2
1.095509354E1,-2.437118068E-2,-6.048866548E-3,-1.474064216E-2,2.911751648E-2
1.096511854E1,-1.664378308E-2,-4.092330113E-3,-1.480888017E-2,2.265095169E-2
1.097514354E1,-7.158135995E-3,-4.749864340E-3,-7.524336688E-3,1.141997219E-2
1.098516754E1,-1.156544429E-3,8.499936666E-4,2.500737552E-3,2.883361329E-3
1.099519254E1,4.080828279E-3,-1.266953070E-3,1.913776621E-3,4.681972926E-3
1.100521754E1,4.430156201E-3,-1.473495970E-3,-6.873657927E-3,8.309310900E-3
1.101524154E1,2.253554296E-3,2.444546437E-3,-2.052155882E-2,2.078914839E-2
1.102526654E1,-1.045617275E-3,-2.431228990E-3,-2.536372654E-2,2.550142768E-2
1.103529154E1,-4.831833299E-3,-1.096133329E-2,-2.317753620E-2,2.609014421E-2
1.104531654E1,-9.509934112E-3,4.846776836E-3,-7.750271820E-3,1.319078488E-2
1.105534054E1,-9.045744315E-3,9.366960265E-3,-5.477263592E-3,1.412677781E-2
1.106536554E1,-1.115795784E-2,9.940560907E-3,-2.875739476E-3,1.521790563E-2
1.107539054E1,-1.272815652E-2,6.167660467E-3,-6.950109731E-3,1.575912527E-2
1.108541554E1,-1.105627418E-2,5.124041811E-3,-1.537716202E-2,1.962024758E-2
1.109543954E1,-1.768807694E-2,-3.626707196E-2,-1.764058322E-2,4.403815108E-2
1.110546454E1,-2.853894792E-2,3.993271384E-4,-2.760876436E-3,2.867496207E-2
1.111548954E1,-2.013401315E-2,1.788404584E-2,5.526614841E-3,2.749110861E-2
1.112551454E1,-4.556740168E-3,2.124988288E-2,1.034915261E-2,2.407127672E-2
1.113553854E1,1.319056563E-2,2.184429765E-2,2.977523021E-3,2.569104912E-2
1.114556354E1,2.590709180E-2,2.623009495E-2,-2.709347289E-3,3.696668567E-2
1.115558854E1,2.435393631E-2,2.346892841E-2,-6.534978282E-3,3.444721696E-2
1.116561254E1,1.551194489E-2,1.153894514E-2,-3.083849326E-3,1.957748237E-2
1.117563754E1,3.499756334E-3,2.096175216E-3,4.395372234E-3,5.996794312E-3
1.118566254E1,-9.471317753E-3,-3.593845526E-3,1.275660191E-2,1.628964327E-2
1.119568754E1,-1.233661268E-2,8.382389322E-3,1.887787879E-2,2.405890211E-2
1.120571154E1,-9.968253784E-3,9.359088726E-3,2.737187035E-2,3.059702456E-2
1.121573654E1,-9.326805593E-4,1.604894921E-2,3.673900664E-2,4.010228513E-2
1.122576154E1,7.343900390E-3,2.095847204E-2,3.724405169E-2,4.336253925E-2
1.123578654E1,1.520475373E-2,9.894635528E-3,3.293159604E-2,3.759758458E-2
1.124581054E1,2.252362482E-2,-8.658228908E-4,3.101938963E-2,3.834404592E-2
1.125583554E1,3.326415271E-2,1.104623079E-2,3.006091714E-2,4.617555424E-2
1.126586054E1,4.792233557E-2,1.027608942E-2,2.729152143E-2,5.609790907E-2
1.127588554E1,5.827004835E-2,6.681621075E-3,2.380571142E-2,6.329892962E-2
1.128590954E1,7.750311494E-2,-1.669356832E-3,1.655343920E-2,7.926875757E-2
1.129593454E1,8.985218406E-2,1.949612866E-3,1.688207313E-2,9.144517682E-2
1.130595954E1,1.043141112E-1,1.292386279E-2,1.277082786E-2,1.058846262E-1
1.131598354E1,1.153470576E-1,2.961362712E-2,1.437165402E-2,1.199518864E-1
1.132600854E1,1.178721189E-1,2.594627813E-2,1.903535053E-2,1.221858844E-1
1.133603354E1,1.067805812E-1,2.512043156E-2,1.868594438E-2,1.112757526E-1
1.134605854E1,9.266921878E-2,1.321275719E-2,1.003592834E-2,9.414287503E-2
1.135608254E1,7.528889924E-2,5.146840587E-3,9.818613529E-3,7.610067995E-2
1.136610754E1,6.384529173E-2,6.890678778E-3,2.597453073E-3,6.426857314E-2
1.137613254E1,6.010954455E-2,8.182237856E-3,-6.056303158E-3,6.096544242E-2
1.138615754E1,6.029533595E-2,5.175011232E-3,-6.303462666E-3,6.084440747E-2
1.139618154E1,6.058215722E-2,2.189327031E-2,-3.161198925E-3,6.449423414E-2
1.140620654E1,7.018917054E-2,2.414787374E-2,-1.014559530E-4,7.422701503E-2
1.141623154E1,7.814483345E-2,2.026471868E-2,8.576454595E-3,8.118392323E-2
1.142625654E1,7.779127359E-2,2.025856450E-2,1.535139978E-2,8.183860433E-2
1.143628054E1,7.372942567E-2,3.342097253E-2,1.981485821E-2,8.334037569E-2
1.144630554E1,7.620442659E-2,3.784016147E-2,3.255202994E-2,9.109680074E-2
1.145633054E1,6.975771487E-2,2.567803673E-2,4.822872952E-2,8.860875072E-2
1.146635454E1,5.562591553E-2,3.688262030E-2,5.470447987E-2,8.629687293E-2
1.147637954E1,3.807462007E-2,5.667496473E-2,5.773861706E-2,8.941742683E-2
1.148640454E1,2.365183830E-2,5.875967443E-2,5.408637598E-2,8.329132524E-2
1.149642954E1,1.441785879E-2,4.481296614E-2,4.297167435E-2,6.373885301E-2
1.150645354E1,-7.147798780E-3,4.085098580E-2,4.012573138E-2,5.770587827E-2
1.151647854E1,-7.445806637E-3,3.067957237E-2,4.222616553E-2,5.272309981E-2
1.152650354E1,1.555619203E-2,3.015757911E-2,4.143211991E-2,5.355460062E-2
1.153652854E1,5.217891932E-2,4.284594208E-2,4.164437577E-2,7.932634119E-2
1.154655254E1,9.488207847E-2,6.042814627E-2,5.113479495E-2,1.235675400E-1
1.155657754E1,1.326795071E-1,7.466433942E-2,5.659640580E-2,1.624246544E-1
1.156660254E1,1.519318968E-1,6.900840998E-2,5.524561927E-2,1.757769620E-1
1.157662754E1,1.421245337E-1,4.379625991E-2,4.670086876E-2,1.558796542E-1
1.158665154E1,9.999897331E-2,3.206070140E-2,3.767702356E-2,1.115672055E-1
1.159667654E1,5.040026456E-2,5.005914718E-3,1.985062473E-2,5.439938558E-2
1.160670154E1,-6.378667429E-3,-3.168634698E-2,1.182168722E-3,3.234361615E-2
1.161672554E1,-5.517337099E-2,-5.449365824E-2,-1.166891493E-2,7.842080866E-2
1.162675054E1,-8.435625583E-2,-6.324140728E-2,-2.571505681E-2,1.085205862E-1
1.163677554E1,-8.884767443E-2,-6.939756870E-2,-2.868421562E-2,1.163302025E-1
1.164680054E1,-7.098456472E-2,-4.510373995E-2,-3.720793873E-2,9.196513736E-2
1.165682454E1,-5.198983476E-2,-2.423734032E-2,-3.898479789E-2,6.935564902E-2
1.166684954E1,-4.496855289E-2,-6.640560925E-3,-3.923532739E-2,6.004730397E-2
1.167687454E1,-6.012886390E-2,5.908786319E-3,-4.445991665E-2,7.501385351E-2
1.168689954E1,-1.078555137E-1,1.670638099E-2,-4.426435754E-2,1.177762639E-1
1.169692354E1,-1.696120799E-1,1.140402723E-2,-5.410873145E-2,1.783986107E-1
1.170694854E1,-2.188692838E-1,-2.397406613E-3,-6.800812483E-2,2.292043106E-1
1.171697354E1,-2.261748761E-1,-9.780754335E-3,-7.369876653E-2,2.380803350E-1
1.172699854E1,-1.841925830E-1,-4.817362409E-3,-8.143967390E-2,2.014510737E-1
1.173702254E1,-1.162063330E-1,5.235271528E-3,-8.132995665E-2,1.419361890E-1
1.174704754E1,-4.091681913E-2,1.565116271E-2,-7.232429832E-2,8.455737170E-2
1.175707254E1,2.111273073E-2,2.566145174E-2,-7.049471140E-2,7.793434313E-2
1.176709654E1,7.053142786E-2,3.316356242E-2,-6.928472966E-2,1.042826829E-1
1.177712154E1,1.019316912E-1,3.725603968E-2,-6.078045443E-2,1.243878844E-1
1.178714654E1,1.195859239E-1,4.774468765E-2,-4.725273326E-2,1.371611067E-1
1.179717154E1,1.357563734E-1,6.648961455E-2,-2.914457209E-2,1.539482635E-1
1.180719554E1,1.456070840E-1,7.364866138E-2,-1.332503557E-2,1.637165380E-1
1.181722054E1,1.415862441E-1,6.821660697E-2,-5.977639928E-3,1.572765150E-1
1.182724567E1,1.170076430E-1,5.501962081E-2,-4.034386948E-3,1.293608266E-1
1.183727067E1,6.844171137E-2,4.051604494E-2,-4.388321191E-3,7.965597979E-2
1.184729467E1,3.645540681E-3,2.697592787E-2,-2.564935945E-3,2.734171809E-2
1.185731967E1,-5.447714776E-2,1.897020079E-2,1.439659391E-3,5.770355938E-2
1.186734467E1,-9.615637362E-2,8.031325415E-3,-5.944566801E-4,9.649302438E-2
1.187736967E1,-1.252373010E-1,-1.132426225E-2,-6.746891886E-3,1.259291111E-1
1.188739367E1,-1.365359724E-1,-2.506570145E-2,-9.850106202E-3,1.391667551E-1
1.189741867E1,-1.307941973E-1,-2.917762101E-2,-1.554048248E-2,1.349072356E-1
1.190744367E1,-1.040361673E-1,-2.645735070E-2,-2.359448373E-2,1.099100322E-1
1.191746767E1,-5.971158668E-2,-3.297144175E-2,-3.692573309E-2,7.756351797E-2
1.192749267E1,-1.218980271E-2,-2.913406491E-2,-4.995981231E-2,5.910471957E-2
1.193751767E1,2.406886965E-2,-3.015165776E-2,-6.281595677E-2,7.371755135E-2
1.194754267E1,4.341617972E-2,-3.370228410E-2,-7.658658177E-2,9.426724310E-2
1.195756667E1,4.156901315E-2,-3.777772188E-2,-8.205218613E-2,9.943691655E-2
1.196759167E1,2.750290558E-2,-3.380894661E-2,-7.830636203E-2,8.961774947E-2
1.197761667E1,1.654799283E-2,-4.265064374E-2,-8.709133416E-2,9.837588101E-2
1.198764167E1,1.377426274E-2,-5.529778823E-2,-1.004873067E-1,1.155217491E-1
1.199766567E1,1.987583190E-2,-5.452467129E-2,-1.160763800E-1,1.297756313E-1
1.200769067E1,2.828256041E-2,-4.433730990E-2,-1.189256608E-1,1.300346611E-1
1.201771567E1,3.935971484E-2,-4.371705651E-2,-1.090554520E-1,1.239090788E-1
1.202773967E1,4.922239482E-2,-3.741791472E-2,-9.683097154E-2,1.148876910E-1
1.203776467E1,5.660600960E-2,-2.068500780E-2,-8.499615639E-2,1.041943207E-1
1.204778967E1,6.541056931E-2,-5.761007778E-3,-7.545508444E-2,1.000260044E-1
1.205781467E1,7.659184933E-2,1.434320817E-3,-6.754948944E-2,1.021337465E-1
1.206783867E1,9.722542763E-2,-1.947405981E-3,-5.858540535E-2,1.135289650E-1
1.207786367E1,1.342092752E-1,-3.109609475E-3,-5.236346275E-2,1.440962576E-1
1.208788867E1,1.752452105E-1,9.608197957E-3,-4.889276624E-2,1.821913935E-1
1.209791367E1,2.028568536E-1,1.650471985E-2,-4.043776169E-2,2.075054732E-1
1.210793767E1,2.103518695E-1,9.247901849E-3,-2.307052538E-2,2.118152068E-1
1.211796267E1,2.161258608E-1,1.497529540E-2,-6.178362295E-3,2.167321373E-1
1.212798767E1,2.293525338E-1,1.825061440E-2,5.859348923E-3,2.301521272E-1
1.213801167E1,2.472114265E-1,2.986625955E-2,2.213232778E-2,2.499906454E-1
1.214803667E1,2.638406157E-1,4.568172246E-2,3.715626895E-2,2.703317936E-1
1.215806167E1,2.625788152E-1,5.916903540E-2,5.356613547E-2,2.744411409E-1
1.216808667E1,2.564281821E-1,7.041525096E-2,6.597527862E-2,2.739825862E-1
1.217811067E1,2.479670644E-1,7.836079597E-2,6.811247021E-2,2.688259436E-1
1.218813567E1,2.298397422E-1,7.554540038E-2,7.126959413E-2,2.522157205E-1
1.219816067E1,2.113621980E-1,7.822640985E-2,5.973357707E-2,2.331554206E-1
1.220818567E1,1.932284534E-1,8.745495975E-2,4.166621342E-2,2.161519802E-1
1.221820967E1,1.762318909E-1,9.187846631E-2,2.242806926E-2,2.000058755E-1
1.222823467E1,1.557788998E-1,7.820793241E-2,-5.420165602E-3,1.743930174E-1
1.223825967E1,1.238622516E-1,7.835893333E-2,-2.841789275E-2,1.492968735E-1
1.224828467E1,8.499429375E-2,8.358113468E-2,-4.151285067E-2,1.262265931E-1
1.225830867E1,3.623740375E-2,9.550251067E-2,-4.027741030E-2,1.098004952E-1
1.226833367E1,1.132595236E-3,9.271924198E-2,-3.415124491E-2,9.881522218E-2
1.227835867E1,-1.588740014E-2,9.214958549E-2,-2.921134979E-2,9.796559878E-2
1.228838267E1,-1.556102745E-2,8.294483274E-2,-2.176762745E-2,8.715400426E-2
1.229840767E1,-1.505129738E-3,6.808891892E-2,-1.828075200E-2,7.051632570E-2
1.230843267E1,3.086885624E-2,4.473875463E-2,-2.935768105E-2,6.177633760E-2
1.231845767E1,7.417026162E-2,2.744418569E-2,-3.942682594E-2,8.836789938E-2
1.232848167E1,1.230895072E-1,9.248804301E-3,-4.145979509E-2,1.302132166E-1
1.233850667E1,1.697235852E-1,1.307736523E-2,-2.890751883E-2,1.726637122E-1
1.234853167E1,2.080631554E-1,4.188664258E-2,-2.484075027E-3,2.122520626E-1
1.235855667E1,2.350295484E-1,6.248965487E-2,1.802466251E-2,2.438621210E-1
1.236858067E1,2.352533787E-1,5.620558560E-2,2.431203984E-2,2.430931824E-1
1.237860567E1,2.013737112E-1,3.961675614E-2,3.420195356E-2,2.080640107E-1
1.238863067E1,1.444290131E-1,1.365987211E-2,4.644723237E-2,1.523275331E-1
1.239865467E1,8.021673560E-2,-1.918089762E-2,5.217729509E-2,9.759662713E-2
1.240867967E1,2.004452050E-2,-6.396081299E-2,5.478816479E-2,8.657084614E-2
1.241870467E1,-3.468077630E-2,-9.690065682E-2,6.355049461E-2,1.209593275E-1
1.242872967E1,-7.006357610E-2,-1.096317023E-1,6.874694675E-2,1.471535169E-1
1.243875367E1,-9.150761366E-2,-1.211525425E-1,6.550081819E-2,1.653539812E-1
1.244877867E1,-1.023262069E-1,-1.275247633E-1,5.836498365E-2,1.736078604E-1
1.245880367E1,-1.108888090E-1,-1.150587723E-1,5.471778661E-2,1.689049591E-1
1.246882867E1,-1.252786815E-1,-1.011760831E-1,4.437651858E-2,1.670347965E-1
1.247885267E1,-1.314146072E-1,-9.627240151E-2,3.095312044E-2,1.658199926E-1
1.248887767E1,-1.302389652E-1,-9.244682640E-2,8.879849687E-3,1.599607936E-1
1.249890267E1,-1.244005114E-1,-9.349530935E-2,-2.058856003E-2,1.569737204E-1
1.250892667E1,-1.300455183E-1,-1.124418750E-1,-6.365573406E-2,1.833222970E-1
1.251895167E1,-1.424822062E-1,-1.452589482E-1,-1.158579513E-1,2.341461211E-1
1.252897667E1,-1.525389552E-1,-1.781253517E-1,-1.409295648E-1,2.736017471E-1
1.253900167E1,-1.521394849E-1,-1.762166619E-1,-1.371550709E-1,2.702040863E-1
1.254902567E1,-1.399029493E-1,-1.524969786E-1,-1.221815795E-1,2.403258248E-1
1.255905067E1,-1.173475757E-1,-1.308689266E-1,-1.094143838E-1,2.070474266E-1
1.256907567E1,-9.215282649E-2,-1.163335145E-1,-9.720051289E-2,1.774079190E-1
1.257910067E1,-7.257646322E-2,-9.676114470E-2,-8.735161275E-2,1.491990831E-1
1.258912467E1,-6.309320033E-2,-8.106330782E-2,-7.991691679E-2,1.301488586E-1
1.259914967E1,-6.892845035E-2,-8.465937525E-2,-7.672165334E-2,1.334337033E-1
1.260917467E1,-9.498312324E-2,-9.301384538E-2,-6.099417806E-2,1.462657133E-1
1.261919967E1,-1.207095310E-1,-8.803427219E-2,-4.384049028E-2,1.557010358E-1
1.262922367E1,-1.362082362E-1,-8.079554141E-2,-2.962584794E-2,1.611157782E-1
1.263924867E1,-1.269351095E-1,-7.780294865E-2,-2.347314730E-2,1.507209656E-1
1.264927367E1,-1.030377224E-1,-6.943668425E-2,-1.136252098E-2,1.247691157E-1
1.265929767E1,-7.140310109E-2,-4.604507983E-2,8.724903688E-3,8.540887639E-2
1.266932267E1,-3.827093542E-2,-2.082526684E-2,3.129509464E-2,5.364456342E-2
1.267934767E1,-1.394376066E-2,2.278453670E-3,5.232394859E-2,5.419792808E-2
1.268937267E1,-5.898647942E-3,7.369264029E-3,6.553582847E-2,6.621212059E-2
1.269939667E1,-2.804016881E-2,-2.764051314E-4,7.934032381E-2,8.414995216E-2
1.270942167E1,-5.908513814E-2,-1.322274189E-2,8.259982616E-2,1.024139919E-1
1.271944667E1,-8.831813186E-2,-3.290376812E-2,7.813663036E-2,1.224258281E-1
1.272947167E1,-1.029502526E-1,-5.700762570E-2,7.127533853E-2,1.375819675E-1
1.273949567E1,-1.038243026E-1,-7.343506068E-2,6.152257323E-2,1.412700285E-1
1.274952067E1,-9.587284923E-2,-6.824970245E-2,5.583460629E-2,1.302579301E-1
1.275954567E1,-7.480724901E-2,-6.564433128E-2,4.148309678E-2,1.078246264E-1
1.276956967E1,-5.156378821E-2,-8.008573949E-2,2.545692585E-2,9.859312855E-2
1.277959467E1,-3.482395783E-2,-7.305739075E-2,1.926534250E-2,8.319401303E-2
1.278961967E1,-5.292619113E-3,-7.224071026E-2,1.280271634E-2,7.355706344E-2
1.279964467E1,3.652087599E-2,-6.827260554E-2,1.143358648E-2,7.826653148E-2
1.280966867E1,1.002198383E-1,-8.062869310E-2,7.151520811E-3,1.288260315E-1
1.281969367E1,1.736842096E-1,-7.179046422E-2,1.789512113E-3,1.879448796E-1
1.282971812E1,2.308312058E-1,-3.915836290E-2,9.303893894E-4,2.341309219E-1
1.283974312E1,2.581302226E-1,-1.454010326E-2,6.206377875E-3,2.586138928E-1
1.284976712E1,2.551482022E-1,5.794403143E-3,1.410816796E-3,2.552178885E-1
1.285979212E1,2.301927954E-1,9.823500179E-3,-1.461448893E-2,2.308653449E-1
1.286981712E1,1.860984713E-1,1.893846504E-2,-2.559962496E-2,1.888031972E-1
1.287984112E1,1.291094869E-1,1.981624216E-2,-2.694212459E-2,1.333709907E-1
1.288986612E1,7.042420655E-2,-5.940461531E-3,-2.059029415E-2,7.361262232E-2
1.289989112E1,2.692919411E-2,-4.281858355E-2,-1.131641446E-3,5.059538719E-2
1.290991612E1,7.323022000E-3,-8.489535749E-2,1.542944275E-2,8.659628213E-2
1.291994012E1,8.214381523E-3,-1.230541989E-1,3.727614880E-2,1.288383608E-1
1.292996512E1,2.980333567E-2,-1.307097822E-1,5.536344647E-2,1.450461899E-1
1.293999012E1,6.362389028E-2,-1.360891014E-1,7.141431421E-2,1.663377504E-1
1.295001512E1,1.021185517E-1,-1.167958304E-1,9.386130422E-2,1.813268018E-1
1.296003912E1,1.350423992E-1,-1.044901609E-1,1.112038046E-1,2.037668508E-1
1.297006412E1,1.547768265E-1,-9.073367715E-2,1.240715906E-1,2.181335045E-1
1.298008912E1,1.480089426E-1,-5.792326480E-2,1.378798038E-1,2.104105320E-1
1.299011312E1,1.216622069E-1,-4.574504122E-2,1.516751796E-1,1.997489962E-1
1.300013812E1,7.996136695E-2,-7.419213653E-2,1.571543664E-1,1.913002567E-1
1.301016312E1,2.506142855E-2,-1.085332781E-1,1.521051377E-1,1.885298931E-1
1.302018812E1,-1.120097097E-2,-1.240845472E-1,1.497514397E-1,1.948022851E-1
1.303021212E1,-5.408576224E-3,-1.506412178E-1,1.320323050E-1,2.003860244E-1
1.304023712E1,4.438188300E-2,-1.408772767E-1,1.227125749E-1,1.920274320E-1
1.305026212E1,1.223095506E-1,-1.256408244E-1,1.195752397E-1,2.122344951E-1
1.306028713E1,1.804735214E-1,-1.142153293E-1,1.125215888E-1,2.414061749E-1
1.307031112E1,2.075414062E-1,-1.051006019E-1,1.047795191E-1,2.551437231E-1
1.308033612E1,2.064894587E-1,-9.921954572E-2,9.570186585E-2,2.482765835E-1
1.309036112E1,1.841911525E-1,-8.269248903E-2,9.312906116E-2,2.223453404E-1
1.310038512E1,1.469082385E-1,-6.234114245E-2,9.154128283E-2,1.839789527E-1
1.311041012E1,1.179541275E-1,-5.485732853E-2,8.478672057E-2,1.552781075E-1
1.312043512E1,9.743154049E-2,-5.057709664E-2,7.492929697E-2,1.329110504E-1
1.313046012E1,7.029238343E-2,-3.071466275E-2,7.314216346E-2,1.059914419E-1
1.314048412E1,2.786130831E-2,-2.256512456E-2,8.184803277E-2,8.935624106E-2
1.315050912E1,-3.282692656E-2,-1.329395175E-2,1.045768112E-1,1.104112571E-1
1.316053412E1,-9.665676951E-2,1.478242408E-2,1.310582161E-1,1.635154646E-1
1.317055912E1,-1.472954452E-1,6.781022251E-2,1.446041167E-1,2.172660236E-1
1.318058312E1,-1.849453449E-1,1.237882748E-1,1.548437178E-1,2.711178610E-1
1.319060812E1,-2.215797752E-1,1.480230242E-1,1.618447453E-1,3.117725678E-1
1.320063312E1,-2.720035315E-1,1.367985904E-1,1.749059558E-1,3.511294189E-1
1.321065712E1,-3.366781175E-1,1.198996082E-1,1.912851483E-1,4.053616642E-1
1.322068212E1,-3.896318674E-1,9.822893888E-2,2.042731196E-1,4.507653757E-1
1.323070712E1,-4.044222832E-1,8.613087237E-2,2.058924735E-1,4.619173313E-1
1.324073212E1,-3.621632457E-1,9.104707092E-2,1.902160347E-1,4.190870142E-1
1.325075612E1,-2.700294256E-1,9.176333994E-2,1.715413928E-1,3.328105327E-1
1.326078112E1,-1.601351500E-1,1.018985361E-1,1.655876338E-1,2.518845815E-1
1.327080612E1,-5.147559196E-2,1.221071035E-1,1.601383090E-1,2.078561024E-1
1.328083112E1,4.475453869E-2,1.260064989E-1,1.441082060E-1,1.965903903E-1
1.329085513E1,9.707586467E-2,1.052052677E-1,1.291882396E-1,1.928249805E-1
1.330088012E1,9.564175457E-2,7.691370696E-2,1.272595823E-1,1.767995046E-1
1.331090512E1,6.001815945E-2,5.271461233E-2,1.211060137E-1,1.450781733E-1
1.332092912E1,2.488307469E-2,2.932912670E-2,1.083297580E-1,1.149552154E-1
1.333095412E1,5.150276702E-4,2.085047774E-2,1.010789648E-1,1.032083562E-1
1.334097913E1,-2.758984268E-2,3.102934547E-2,9.347190708E-2,1.022791138E-1
1.335100412E1,-7.175436616E-2,3.396107256E-2,8.171655238E-2,1.139282162E-1
1.336102812E1,-1.228857264E-1,1.980903558E-2,7.093261927E-2,1.432645669E-1
1.337105312E1,-1.779181957E-1,-2.289045975E-2,7.961892337E-2,1.962601092E-1
1.338107812E1,-1.801224947E-1,-5.777519196E-3,7.076577097E-2,1.936111752E-1
1.339110312E1,-1.775607467E-1,4.148218408E-2,6.376976520E-2,1.931713574E-1
1.340112712E1,-1.686599255E-1,6.221728772E-2,5.528040975E-2,1.880773379E-1
1.341115212E1,-1.431584060E-1,7.880521566E-2,3.686745465E-2,1.675225371E-1
1.342117712E1,-1.041071415E-1,1.080792099E-1,3.548234701E-2,1.542024950E-1
1.343120112E1,-6.119033694E-2,1.373822987E-1,3.303446993E-2,1.539786659E-1
1.344122612E1,-3.079061955E-2,1.589589715E-1,3.434447572E-2,1.655160412E-1
1.345125112E1,-7.706547156E-3,1.659412831E-1,2.252069116E-2,1.676397382E-1
1.346127612E1,4.294100218E-4,1.560902447E-1,2.136674337E-2,1.575464585E-1
1.347130012E1,-8.641089313E-3,1.288520396E-1,3.080801666E-2,1.327653962E-1
1.348132512E1,-2.186687849E-2,9.701101482E-2,4.088408500E-2,1.075211876E-1
1.349135012E1,-2.866772749E-2,6.852813810E-2,4.294079915E-2,8.580126189E-2
1.350137512E1,-1.535272226E-2,6.935797632E-2,4.073117673E-2,8.188567468E-2
1.351139912E1,4.016063735E-2,8.556233346E-2,3.150897846E-2,9.963235129E-2
1.352142412E1,1.347973943E-1,8.741483092E-2,3.160645068E-2,1.637396039E-1
1.353144912E1,2.480134666E-1,9.930621088E-2,5.888116360E-2,2.735678975E-1
1.354147312E1,3.485086262E-1,1.098249033E-1,7.971054316E-2,3.739967147E-1
1.355149812E1,4.041026831E-1,1.267531067E-1,7.649724185E-2,4.303686287E-1
1.356152312E1,4.081722796E-1,1.076883376E-1,5.578370392E-2,4.258088885E-1
1.357154812E1,3.818243742E-1,4.902938753E-2,2.196487784E-2,3.855855151E-1
1.358157212E1,3.495793641E-1,-1.096577197E-2,-3.392315656E-2,3.513926016E-1
1.359159712E1,3.325662613E-1,-3.831108660E-2,-1.085624471E-1,3.519287747E-1
1.360162212E1,3.176171482E-1,-3.544712439E-2,-1.674097776E-1,3.607813536E-1
1.361164612E1,3.026240468E-1,-3.213796392E-2,-2.086928487E-1,3.690079505E-1
1.362167113E1,2.827345133E-1,-5.466537550E-2,-2.278617471E-1,3.672166719E-1
1.363169612E1,2.493116409E-1,-5.733398348E-2,-2.260818928E-1,3.414037232E-1
1.364172112E1,2.059290111E-1,-5.125904456E-2,-2.167043686E-1,3.033068259E-1
1.365174512E1,1.530820429E-1,-3.390640393E-2,-1.976924390E-1,2.523213358E-1
1.366177012E1,1.004260182E-1,-2.737446874E-2,-1.757344007E-1,2.042481978E-1
1.367179512E1,5.060638487E-2,-5.356831942E-3,-1.522605270E-1,1.605396210E-1
1.368182012E1,-3.631286789E-3,1.958154142E-2,-1.181960329E-1,1.198621092E-1
1.369184412E1,-5.532120541E-2,1.949458942E-2,-9.086498618E-2,1.081523023E-1
1.370186912E1,-8.733718842E-2,1.249740086E-2,-8.134339005E-2,1.200029859E-1
1.371189412E1,-8.309087902E-2,2.791525424E-2,-6.885025650E-2,1.114617128E-1
1.372191812E1,-5.075451359E-2,2.952087298E-2,-3.668379411E-2,6.923296427E-2
1.373194312E1,-3.479785752E-3,7.378850132E-3,-2.788009821E-3,8.621446335E-3
1.374196812E1,4.955573380E-2,3.738841508E-3,3.370550461E-3,4.981074481E-2
1.375199312E1,1.023118347E-1,9.845958091E-3,-2.191761322E-2,1.050953671E-1
1.376201712E1,1.521214545E-1,-6.527558435E-4,-7.232299447E-2,1.684398365E-1
1.377204212E1,2.019344121E-1,-3.715886548E-2,-1.335289776E-1,2.449250415E-1
1.378206712E1,2.499749064E-1,-6.511859596E-2,-1.881224364E-1,3.195589718E-1
1.379209212E1,2.951544821E-1,-6.843575090E-2,-2.200230211E-1,3.744459242E-1
1.380211612E1,3.373836875E-1,-5.026793852E-2,-2.373285145E-1,4.155471598E-1
1.381214112E1,3.732618988E-1,-2.387772501E-2,-2.447256446E-1,4.469734130E-1
1.382216612E1,3.906731009E-1,2.274383605E-2,-2.289658487E-1,4.533961995E-1
1.383219067E1,3.774557114E-1,4.917428643E-2,-1.970446408E-1,4.286228120E-1
1.384221567E1,3.208222687E-1,4.793618247E-2,-1.543320566E-1,3.592258195E-1
1.385224067E1,2.164315879E-1,5.047591031E-2,-1.090542451E-1,2.475545963E-1
1.386226567E1,7.315325737E-2,6.309503317E-2,-6.824477017E-2,1.182781930E-1
1.387228967E1,-9.083852917E-2,4.968057200E-2,-4.535775632E-2,1.130359397E-1
1.388231467E1,-2.387230694E-1,1.370925643E-2,-3.843380511E-2,2.421854764E-1
1.389233967E1,-3.643398881E-1,-1.458677091E-2,-1.861526258E-2,3.651066364E-1
1.390236367E1,-4.447740018E-1,-3.177374601E-2,5.004046950E-3,4.459355605E-1
1.391238867E1,-4.718745351E-1,-3.389835730E-2,3.545277193E-2,4.744170892E-1
1.392241367E1,-4.452815354E-1,-2.139055356E-2,5.690613389E-2,4.494124048E-1
1.393243867E1,-3.933382034E-1,-5.595344584E-3,6.917265803E-2,3.994134534E-1
1.394246267E1,-3.429027200E-1,7.690882776E-3,5.885594711E-2,3.480020798E-1
1.395248767E1,-3.038509786E-1,1.176641788E-2,2.637447603E-2,3.052203774E-1
1.396251267E1,-2.772521377E-1,-1.393095497E-2,-2.091633901E-2,2.783887796E-1
1.397253767E1,-2.574682534E-1,-5.366126075E-2,-7.725363970E-2,2.741123077E-1
1.398256167E1,-2.341687977E-1,-9.238095582E-2,-1.433061510E-1,2.896651856E-1
1.399258667E1,-1.998123378E-1,-1.160446107E-1,-1.910718977E-1,2.998329403E-1
1.400261167E1,-1.441799551E-1,-1.275811642E-1,-2.274767756E-1,2.980108998E-1
1.401263567E1,-7.428397238E-2,-1.273734123E-1,-2.485270500E-1,2.889771432E-1
1.402266067E1,-1.306695770E-2,-1.288272440E-1,-2.529265881E-1,2.841462003E-1
1.403268567E1,1.579949446E-2,-1.300887764E-1,-2.426775992E-1,2.757990771E-1
1.404271067E1,1.600722037E-2,-1.342283934E-1,-2.153285295E-1,2.542437183E-1
1.405273467E1,-8.622239344E-3,-1.417446136E-1,-1.830921471E-1,2.317080336E-1
1.406275967E1,-5.764357746E-2,-1.617500186E-1,-1.461554319E-1,2.254933720E-1
1.407278467E1,-1.239918247E-1,-1.991712451E-1,-1.097774133E-1,2.590255546E-1
1.408280867E1,-1.786039323E-1,-2.182200402E-1,-9.478461742E-2,2.974953349E-1
1.409283367E1,-2.186673284E-1,-2.264010757E-1,-9.176068008E-2,3.278610529E-1
1.410285867E1,-2.448747009E-1,-2.179924101E-1,-8.137515187E-2,3.377961298E-1
1.411288367E1,-2.586287558E-1,-1.890822351E-1,-5.473834649E-2,3.250187864E-1
1.412290767E1,-2.566942275E-1,-1.561671644E-1,-2.463717200E-2,3.014748744E-1
1.413293267E1,-2.434442639E-1,-1.087067425E-1,1.219955459E-2,2.668915410E-1
1.414295767E1,-2.351290733E-1,-6.295230240E-2,4.584912956E-2,2.476909691E-1
1.415298267E1,-2.351690829E-1,-1.997227222E-2,8.007419854E-2,2.492293451E-1
1.416300667E1,-2.384306490E-1,2.932243282E-3,1.112584770E-1,2.631277658E-1
1.417303167E1,-2.443844825E-1,2.444351278E-2,1.372223645E-1,2.813382980E-1
1.418305667E1,-2.401178330E-1,4.473892972E-2,1.529089212E-1,2.881653757E-1
1.419308067E1,-2.290390581E-1,5.399921536E-2,1.594420969E-1,2.842474057E-1
1.420310567E1,-2.073851675E-1,6.769478321E-2,1.706284434E-1,2.769571394E-1
1.421313067E1,-1.706525534E-1,8.418300003E-2,1.683167368E-1,2.540464434E-1
1.422315567E1,-1.239947751E-1,9.332217276E-2,1.623709649E-1,2.246064612E-1
1.423317967E1,-9.148579091E-2,8.689097315E-2,1.674647927E-1,2.096762933E-1
1.424320467E1,-8.019638807E-2,7.793156803E-2,1.661473215E-1,2.002741181E-1
1.425322967E1,-6.632105261E-2,6.107588485E-2,1.606894433E-1,1.842548315E-1
1.426325367E1,-3.907478601E-2,4.545164853E-2,1.470162421E-1,1.587654456E-1
1.427327867E1,1.070127822E-3,4.048781469E-2,1.254778057E-1,1.318525238E-1
1.428330367E1,6.001839787E-2,3.806141019E-2,9.544719756E-2,1.190001956E-1
1.429332867E1,1.251199991E-1,2.553947642E-2,6.472632289E-2,1.431669511E-1
1.430335267E1,1.875143945E-1,-2.098008525E-3,2.901785821E-2,1.897579666E-1
1.431337767E1,2.438531667E-1,-1.564650051E-2,-6.442585029E-3,2.444395361E-1
1.432340267E1,2.978868484E-1,-3.835421056E-2,-3.476956487E-2,3.023516869E-1
1.433342767E1,3.550487161E-1,-5.104914680E-2,-4.997774959E-2,3.621648542E-1
1.434345167E1,4.150470793E-1,-3.049140796E-2,-7.040206343E-2,4.220784934E-1
1.435347667E1,4.511197209E-1,-6.415068172E-3,-8.339069784E-2,4.588073280E-1
1.436350167E1,4.390502870E-1,1.470299996E-2,-8.334169537E-2,4.471321627E-1
1.437352567E1,3.797287643E-1,1.500735176E-3,-9.403857589E-2,3.912025567E-1
1.438355067E1,2.875764668E-1,-3.270597011E-2,-1.193149090E-1,3.130590236E-1
1.439357567E1,1.734679043E-1,-5.414243788E-2,-1.407480836E-1,2.298533020E-1
1.440360067E1,6.599871814E-2,-7.377898693E-2,-1.514342874E-1,1.809185262E-1
1.441362467E1,-1.942042820E-2,-1.104529351E-1,-1.477607042E-1,1.854999450E-1
1.442364967E1,-8.946689218E-2,-1.340666562E-1,-1.399589777E-1,2.134636001E-1
1.443367467E1,-1.416638345E-1,-1.342861354E-1,-1.143685058E-1,2.262334265E-1
1.444369867E1,-1.722206771E-1,-1.162895635E-1,-7.573136687E-2,2.211751888E-1
1.445372367E1,-1.676087976E-1,-7.794059068E-2,-4.240109026E-2,1.896451875E-1
1.446374867E1,-1.201041192E-1,-4.247580841E-2,-2.471556701E-2,1.297692298E-1
1.447377367E1,-5.332910642E-2,-1.641581580E-2,-1.525703445E-2,5.784677779E-2
1.448379767E1,2.190625854E-2,6.563269533E-3,-1.765760779E-2,2.889207128E-2
1.449382267E1,8.609995246E-2,2.256184258E-2,-3.068476915E-2,9.414772229E-2
1.450384767E1,1.281395555E-1,2.626683377E-2,-4.716734216E-2,1.390483743E-1
1.451387267E1,1.520359218E-1,1.659436338E-2,-5.674947798E-2,1.631281633E-1
1.452389667E1,1.735531837E-1,3.929967061E-3,-5.674149096E-2,1.826355634E-1
1.453392167E1,2.037457526E-1,-1.927181706E-2,-5.882498249E-2,2.129415722E-1
1.454394667E1,2.322410494E-1,-3.390429169E-2,-5.690404400E-2,2.415025388E-1
1.455397067E1,2.542121410E-1,-3.913367540E-2,-4.364256561E-2,2.608829828E-1
1.456399567E1,2.707365155E-1,-5.658643320E-2,-3.433961421E-2,2.787104131E-1
1.457402067E1,2.739825249E-1,-9.452550858E-2,-3.035666235E-2,2.914155498E-1
1.458404567E1,2.455159873E-1,-1.193269938E-1,-3.333966807E-2,2.750064816E-1
1.459406967E1,1.833613962E-1,-1.447258741E-1,-3.215821832E-2,2.357989212E-1
1.460409467E1,1.004143134E-1,-1.634428352E-1,-2.695333585E-2,1.937087428E-1
1.461411967E1,5.758467130E-3,-1.779958308E-1,-1.844355650E-2,1.790414491E-1
1.462414367E1,-7.547353208E-2,-1.864649355E-1,-1.064155996E-2,2.014414779E-1
1.463416867E1,-1.309673935E-1,-1.645129323E-1,-2.070758026E-3,2.102884949E-1
1.464419367E1,-1.710074842E-1,-1.103207991E-1,3.109012358E-2,2.058660587E-1
1.465421867E1,-1.961987764E-1,-5.871366709E-2,6.801316887E-2,2.157939890E-1
1.466424267E1,-2.155288011E-1,-3.057097644E-2,9.538460523E-2,2.376667238E-1
1.467426767E1,-2.419279069E-1,-5.526755936E-3,1.123935208E-1,2.668182165E-1
1.468429267E1,-2.626334429E-1,4.524014890E-3,1.211356148E-1,2.892587582E-1
1.469431667E1,-2.740728855E-1,-3.287718398E-3,1.169578433E-1,2.980031758E-1
1.470434167E1,-2.623373866E-1,-9.205794893E-3,1.006726176E-1,2.811416493E-1
1.471436667E1,-2.293483615E-1,-6.263039540E-4,8.136676252E-2,2.433549120E-1
1.472439167E1,-1.783504188E-1,1.030544005E-2,5.672985688E-2,1.874389251E-1
1.473441567E1,-1.171370223E-1,8.382605389E-3,2.427058108E-2,1.199183521E-1
1.474444067E1,-5.920954049E-2,-4.150763154E-3,-7.783492096E-3,5.986302088E-2
1.475446567E1,-8.968482725E-3,-1.838815026E-2,-4.212576151E-2,4.683094634E-2
1.476448967E1,3.017492592E-2,-2.558880486E-2,-7.192387432E-2,8.208749470E-2
1.477451467E1,3.593054414E-2,-4.409576580E-2,-1.016512439E-1,1.164835437E-1
1.478453967E1,4.249311984E-3,-6.980352849E-2,-1.053564996E-1,1.264538700E-1
1.479456467E1,-5.448474735E-2,-7.498776913E-2,-9.931840003E-2,1.358524854E-1
1.480458867E1,-1.094830185E-1,-6.933628023E-2,-9.283760190E-2,1.594141506E-1
1.481461367E1,-1.432611048E-1,-6.775026768E-2,-9.629654139E-2,1.854369618E-1
1.482463867E1,-1.571545601E-1,-5.939886719E-2,-9.696632624E-2,1.939800237E-1
1.483466300E1,-1.453813165E-1,-3.648534045E-2,-9.169738740E-2,1.757137391E-1
1.484468700E1,-1.085314155E-1,-8.321078494E-3,-9.533765912E-2,1.446982299E-1
1.485471200E1,-7.557861507E-2,3.923205659E-3,-8.744183183E-2,1.156442500E-1
1.486473700E1,-5.995172262E-2,5.686877994E-4,-7.458329201E-2,9.569325942E-2
1.487476100E1,-6.034247577E-2,-1.439484302E-2,-6.215641275E-2,8.781711413E-2
1.488478600E1,-6.956154108E-2,-2.812397107E-2,-5.019162595E-2,9.027161825E-2
1.489481100E1,-8.626624942E-2,-4.428118467E-2,-3.738784045E-2,1.039256451E-1
1.490483600E1,-1.052508578E-1,-6.218508631E-2,-2.794107422E-2,1.254010831E-1
1.491486000E1,-1.344810277E-1,-6.422609091E-2,-2.080633119E-2,1.504760479E-1
1.492488500E1,-1.633829772E-1,-6.726849079E-2,-1.691065915E-2,1.774965281E-1
1.493491000E1,-1.792005450E-1,-8.453032374E-2,-2.055454999E-2,1.992001518E-1
1.494493400E1,-1.809047014E-1,-8.702463657E-2,-2.986682579E-2,2.029576942E-1
1.495495900E1,-1.659028083E-1,-8.396407217E-2,-3.262931854E-2,1.887813011E-1
1.496498400E1,-1.389638633E-1,-7.221340388E-2,-3.154434636E-2,1.597522356E-1
1.497500900E1,-9.760284424E-2,-3.883269057E-2,-2.427967079E-2,1.078137073E-1
1.498503300E1,-4.120134935E-2,-2.022571675E-2,-2.127882093E-2,5.059070099E-2
1.499505800E1,1.640301198E-2,-1.843275875E-2,-1.474934909E-2,2.874662929E-2
1.500508300E1,6.207622215E-2,-1.142811310E-2,-9.368166327E-3,6.381082718E-2
1.501510700E1,9.726106375E-2,-1.991797006E-3,2.398472279E-3,9.731101915E-2
1.502513200E1,1.267577112E-1,1.704793982E-2,1.007796358E-2,1.282954206E-1
1.503515700E1,1.480524093E-1,2.225403674E-2,1.525095478E-2,1.504903640E-1
1.504518200E1,1.498180926E-1,4.182358272E-3,7.405548822E-3,1.500593054E-1
1.505520600E1,1.339294016E-1,-1.249263715E-2,-9.372793138E-3,1.348369380E-1
1.506523100E1,1.099684238E-1,-1.592252403E-2,-3.662491962E-2,1.169955801E-1
1.507525600E1,8.688768744E-2,5.842919927E-4,-6.934310496E-2,1.111677913E-1
1.508528000E1,7.546778768E-2,2.953684703E-2,-1.039391682E-1,1.317997078E-1
1.509530500E1,7.843486965E-2,4.905533791E-2,-1.214813069E-1,1.526963093E-1
1.510533000E1,7.753391564E-2,5.242397264E-2,-1.181715280E-1,1.507457827E-1
1.511535500E1,7.533346862E-2,3.068894334E-2,-1.119470522E-1,1.383802198E-1
1.512537900E1,6.507630646E-2,2.029249631E-2,-1.150296554E-1,1.337106304E-1
1.513540400E1,5.124830082E-2,1.401992608E-2,-1.276258379E-1,1.382436298E-1
1.514542900E1,3.644112498E-2,3.778207814E-3,-1.363807172E-1,1.412159002E-1
1.515545300E1,1.617475227E-2,6.259312853E-3,-1.562889516E-1,1.572483323E-1
1.516547800E1,-6.429624744E-3,1.723126881E-2,-1.813301295E-1,1.822604526E-1
1.517550300E1,-5.877643824E-3,4.980064929E-3,-2.078500688E-1,2.079927856E-1
1.518552800E1,2.897434682E-2,-1.664000750E-2,-2.225360721E-1,2.250304558E-1
1.519555200E1,1.040510759E-1,-2.572818100E-2,-2.221712917E-1,2.466751884E-1
1.520557700E1,2.170490026E-1,-2.810771577E-2,-2.067614496E-1,3.010823978E-1
1.521560200E1,3.435507119E-1,-1.100299694E-2,-1.839612871E-1,3.898588369E-1
1.522562600E1,4.489381313E-1,1.549492311E-2,-1.630235165E-1,4.778725828E-1
1.523565100E1,5.082869530E-1,2.377002500E-2,-1.595195830E-1,5.332608536E-1
1.524567600E1,5.072605610E-1,2.269916795E-2,-1.603773981E-1,5.324936045E-1
1.525570100E1,4.633278251E-1,1.474553719E-2,-1.536122113E-1,4.883511194E-1
1.526572500E1,3.855051994E-1,5.152831785E-3,-1.369794458E-1,4.091505579E-1
1.527575000E1,2.672747970E-1,-4.661252722E-3,-1.075058728E-1,2.881233366E-1
1.528577500E1,1.246097982E-1,-5.985376425E-3,-7.071830332E-2,1.434032948E-1
1.529580000E1,-1.112666447E-2,-9.922014549E-3,-3.934561461E-2,4.207524717E-2
1.530582400E1,-1.218808740E-1,-1.867502555E-2,-2.167847194E-2,1.251944894E-1
1.531584900E1,-2.179925889E-1,-3.126072139E-2,-3.782742191E-3,2.202551036E-1
1.532587400E1,-2.857628465E-1,-4.440715164E-2,1.786529645E-2,2.897439704E-1
1.533589800E1,-3.284707367E-1,-5.188810080E-2,3.276709840E-2,3.341542797E-1
1.534592300E1,-3.425596356E-1,-6.790674478E-2,4.560966045E-2,3.521912422E-1
1.535594800E1,-3.328741789E-1,-7.963398844E-2,4.011291638E-2,3.446096881E-1
1.536597300E1,-3.034518361E-1,-9.814935178E-2,1.407252438E-2,3.192402669E-1
1.537599700E1,-2.623891532E-1,-1.108039394E-1,-3.225541115E-2,2.866461098E-1
1.538602200E1,-2.107192725E-1,-9.311150014E-2,-7.703246176E-2,2.429122546E-1
1.539604700E1,-1.469777822E-1,-6.387952715E-2,-1.146556213E-1,1.970506888E-1
1.540607100E1,-7.006197423E-2,-2.031900361E-2,-1.434364021E-1,1.609209234E-1
1.541609600E1,1.021724287E-2,1.698722132E-2,-1.652403325E-1,1.664251340E-1
1.542612100E1,7.561622560E-2,4.808894545E-2,-1.793124676E-1,2.004577793E-1
1.543614600E1,1.127155498E-1,6.731780618E-2,-1.915445030E-1,2.322192473E-1
1.544617000E1,1.065966710E-1,6.471988559E-2,-2.027305812E-1,2.380151306E-1
1.545619500E1,4.947144166E-2,3.324448690E-2,-2.035754621E-1,2.121216354E-1
1.546622000E1,-3.916974738E-2,-2.613068931E-2,-2.019999325E-1,2.074151749E-1
1.547624400E1,-1.397477984E-1,-8.628384024E-2,-1.856140494E-1,2.478445553E-1
1.548626900E1,-2.252829373E-1,-1.160601079E-1,-1.566180885E-1,2.979120275E-1
1.549629400E1,-2.754239440E-1,-1.266526878E-1,-1.386866719E-1,3.333665328E-1
1.550631900E1,-2.805998027E-1,-1.347519010E-1,-1.364400238E-1,3.398679217E-1
1.551634300E1,-2.628074586E-1,-1.340217143E-1,-1.370429099E-1,3.252850125E-1
1.552636800E1,-2.367085069E-1,-1.196542159E-1,-1.304989904E-1,2.955977590E-1
1.553639300E1,-2.218999714E-1,-1.103125438E-1,-1.129946113E-1,2.723531472E-1
1.554641700E1,-2.178644836E-1,-9.512666613E-2,-8.687672764E-2,2.531038949E-1
1.555644200E1,-2.161045074E-1,-9.660362452E-2,-6.618116796E-2,2.457913046E-1
1.556646700E1,-2.096101344E-1,-9.641294181E-2,-5.035772547E-2,2.361519940E-1
1.557649200E1,-1.777055711E-1,-6.110752001E-2,-3.689157590E-2,1.915055805E-1
1.558651600E1,-1.141678616E-1,-2.017873153E-2,-1.134813391E-2,1.164914674E-1
1.559654100E1,-5.951780081E-2,7.077850401E-3,1.376672648E-2,6.149786449E-2
1.560656600E1,-6.964576431E-3,2.588855661E-2,2.987192571E-2,4.013794507E-2
1.561659000E1,4.111598432E-2,2.362336032E-2,2.944552526E-2,5.581779535E-2
1.562661500E1,7.825056463E-2,1.699182391E-2,2.729422227E-2,8.459815314E-2
1.563664000E1,8.543936908E-2,1.243963279E-2,3.289828822E-2,9.239549567E-2
1.564666500E1,5.388863012E-2,1.291580591E-2,4.116873443E-2,6.903381196E-2
1.565668900E1,7.238230668E-3,3.694318235E-3,4.302605987E-2,4.378677652E-2
1.566671400E1,-3.567860648E-2,-3.580372548E-3,3.654951975E-2,5.120204509E-2
1.567673900E1,-5.649288744E-2,-2.723764814E-2,1.792996004E-2,6.522897573E-2
1.568676300E1,-6.545975804E-2,-5.289161205E-2,6.347606424E-3,8.439665074E-2
1.569678800E1,-5.335824937E-2,-3.394909576E-2,6.429383531E-3,6.356870968E-2
1.570681300E1,-9.901183657E-4,-3.397226334E-2,-1.580694690E-2,3.748272377E-2
1.571683800E1,7.034609467E-2,-3.627426177E-2,-5.033195391E-2,9.379605902E-2
1.572686200E1,1.382223517E-1,-5.264045298E-2,-8.117935061E-2,1.687202500E-1
1.573688700E1,1.830036193E-1,-5.270444974E-2,-7.729465514E-2,2.055299185E-1
1.574691200E1,1.932216436E-1,-3.611908481E-2,-5.568523705E-2,2.043037872E-1
1.575693600E1,1.773836911E-1,-3.774220869E-2,-3.538255021E-2,1.847738429E-1
1.576696100E1,1.434640735E-1,-3.808069602E-2,-2.705857158E-2,1.508782493E-1
1.577698600E1,1.137028411E-1,-3.541612998E-2,-2.460172400E-2,1.216054405E-1
1.578701100E1,9.901684523E-2,-3.718873113E-2,-2.492263541E-2,1.086668078E-1
1.579703500E1,9.096999466E-2,-2.832797170E-2,-2.011006325E-2,9.737776211E-2
1.580706000E1,8.517708629E-2,4.350611474E-3,-6.606771611E-3,8.554363378E-2
1.581708500E1,7.923661172E-2,3.799755871E-2,1.996246725E-2,9.011523292E-2
1.582710900E1,7.458034158E-2,7.121037692E-2,5.892238021E-2,1.187644392E-1
1.583713413E1,9.141312540E-2,9.418532252E-2,9.028653055E-2,1.593075393E-1
1.584715912E1,1.265330315E-1,1.100292653E-1,1.186204329E-1,2.053968217E-1
1.585718412E1,1.697228998E-1,1.177623495E-1,1.404289752E-1,2.497881718E-1
1.586720812E1,2.309340537E-1,1.126666591E-1,1.581770778E-1,3.017354821E-1
1.587723312E1,2.996613979E-1,7.822726667E-2,1.441637725E-1,3.416133076E-1
