"Time (s)","Gyroscope x (rad/s)","Gyroscope y (rad/s)","Gyroscope z (rad/s)","Absolute (rad/s)"
3.850291658E-3,1.752135903E-2,-8.686529472E-4,3.229552507E-2,3.675259882E-2
1.387529162E-2,-3.076053411E-2,-4.277573153E-2,1.150553115E-2,5.392912862E-2
2.390029165E-2,-4.018492997E-2,-5.618820712E-2,-2.748240018E-3,6.913389935E-2
3.392529167E-2,-2.318479121E-2,-3.653983027E-2,3.911820240E-3,4.345107682E-2
4.394929163E-2,3.091551829E-3,-9.431514889E-3,2.589754760E-2,2.773434942E-2
5.397429166E-2,1.624075882E-2,9.319894016E-3,4.974958301E-2,5.315678396E-2
6.399929163E-2,1.273523830E-2,2.129479870E-2,6.661352515E-2,7.108457272E-2
7.402329164E-2,-2.221777570E-3,2.206564508E-2,6.981961429E-2,7.325713295E-2
8.404829167E-2,-1.567180641E-2,1.404606830E-2,5.579354241E-2,5.963067102E-2
9.407329164E-2,-2.306243964E-2,-3.069006372E-3,3.526236117E-2,4.224605351E-2
1.040972917E-1,-2.237214707E-2,-1.252855454E-2,2.098089084E-2,3.313118506E-2
1.141222917E-1,-1.543731615E-2,-5.485625006E-3,1.402391121E-2,2.156554885E-2
1.241472916E-1,-8.561566472E-3,-2.292761579E-3,2.086370811E-2,2.266829266E-2
1.341722917E-1,8.821745869E-4,-3.805565415E-3,2.853236534E-2,2.879854913E-2
1.441962916E-1,6.953382399E-3,-5.602667108E-3,2.973371930E-2,3.104566748E-2
1.542212917E-1,8.715044707E-3,-9.699356742E-4,2.562370896E-2,2.708260033E-2
1.642462917E-1,1.010441594E-2,9.799189866E-5,1.086127572E-2,1.483496323E-2
1.742702916E-1,1.228111237E-2,-7.484698202E-3,-1.028537378E-2,1.768149717E-2
1.842952917E-1,9.771881625E-3,-1.595941000E-2,-2.244616672E-2,2.922366915E-2
1.943202916E-1,-6.745328195E-3,-1.499225292E-2,-1.712911576E-2,2.374181347E-2
2.043442916E-1,-2.335706167E-2,1.658362802E-3,-3.393329913E-3,2.366045614E-2
2.143692917E-1,-2.930875123E-2,7.543761283E-3,1.617103629E-2,3.431346161E-2
2.243942916E-1,-2.414621413E-2,1.666697906E-3,2.531713061E-2,3.502534284E-2
2.344192917E-1,-1.343804225E-2,-4.850658588E-4,2.738142759E-2,3.050506261E-2
2.444432916E-1,-7.018492091E-3,7.348089479E-3,2.342663333E-2,2.553548118E-2
2.544682916E-1,1.273621107E-3,5.811166950E-3,1.427496597E-2,1.546500648E-2
2.644932917E-1,4.281128757E-3,-2.010270488E-3,1.039260905E-2,1.141821237E-2
2.745172916E-1,5.475156941E-3,-4.849928897E-3,5.432020407E-3,9.110762840E-3
2.845422917E-1,6.899682339E-3,-3.640054725E-3,4.482603166E-3,8.997185445E-3
2.945672916E-1,1.292753778E-2,-1.172829606E-2,7.248413283E-3,1.890009674E-2
3.045912916E-1,1.700936444E-2,-1.619548164E-2,8.448965847E-3,2.495991042E-2
3.146162917E-1,1.657399535E-2,-1.262360346E-2,1.535359584E-2,2.588021621E-2
3.246412916E-1,1.131052338E-2,-1.724205911E-2,1.447368786E-2,2.519333606E-2
3.346662917E-1,4.368233494E-3,-2.351718023E-2,3.901547752E-4,2.392261379E-2
3.446902917E-1,-5.304367281E-3,-1.885132492E-2,-1.274002809E-2,2.336272842E-2
3.547152916E-1,-1.682221517E-2,-1.602220163E-2,-1.304803789E-2,2.664487119E-2
3.647402917E-1,-2.473686449E-2,-3.177692741E-2,-1.122696884E-2,4.180586574E-2
3.747642916E-1,-2.192525007E-2,-3.208656609E-2,-1.441400498E-2,4.144909955E-2
3.847892917E-1,-8.394795470E-3,-1.280767471E-2,-1.635278575E-2,2.240363194E-2
3.948142917E-1,3.132811747E-3,-2.889704192E-3,-1.115672477E-2,1.194309036E-2
4.048382916E-1,4.801548552E-3,-1.008183695E-2,-1.166192628E-2,1.614617074E-2
4.148632917E-1,5.935449153E-4,-2.644757554E-2,-1.752592623E-2,3.173302125E-2
4.248882916E-1,-7.344006561E-3,-2.685290761E-2,-2.712236159E-2,3.886689565E-2
4.349132917E-1,-1.632049493E-2,-2.020480111E-2,-2.863360569E-2,3.865845209E-2
4.449372917E-1,-2.476751059E-2,-2.535482123E-2,-1.538065169E-2,3.863755928E-2
4.549622916E-1,-3.489492089E-2,-3.258871660E-2,-3.777407575E-3,4.789518515E-2
4.649872917E-1,-3.547708690E-2,-2.935377695E-2,1.806442160E-3,4.608178761E-2
4.750112916E-1,-2.808457240E-2,-2.104355767E-2,3.164089750E-3,3.523614608E-2
4.850362916E-1,-1.550299954E-2,-1.956523582E-2,-3.489551600E-3,2.520552356E-2
4.950612917E-1,-1.031594165E-2,-3.328586742E-2,-1.171647571E-2,3.676470352E-2
5.050852916E-1,-1.273355912E-2,-3.178304434E-2,-2.071156912E-2,4.001592846E-2
5.151102917E-1,-1.727638021E-2,-2.138313279E-2,-1.686303504E-2,3.225017258E-2
5.251352916E-1,-1.949372701E-2,-2.424416691E-2,-5.875098519E-3,3.165915041E-2
5.351602916E-1,-1.663609967E-2,-3.967207670E-2,-1.070009638E-2,4.432973657E-2
5.451842917E-1,-1.084825024E-2,-5.045947805E-2,-2.351363003E-2,5.671626095E-2
5.552092916E-1,-4.807155579E-3,-5.713094026E-2,-3.998566046E-2,6.989925695E-2
5.652342917E-1,-5.352038424E-3,-6.100663915E-2,-4.887076467E-2,7.835053271E-2
5.752582917E-1,-1.043694373E-2,-4.899478704E-2,-4.667107388E-2,6.846610905E-2
5.852832916E-1,-2.360228077E-2,-2.920643799E-2,-3.354621679E-2,5.035307675E-2
5.953082917E-1,-3.107859194E-2,-2.469275147E-2,-1.671312563E-2,4.306900766E-2
6.053322916E-1,-2.739037946E-2,-3.832786903E-2,-1.253409311E-2,4.874794274E-2
6.153572917E-1,-1.926994696E-2,-4.076121002E-2,-1.740918122E-2,4.833101167E-2
6.253822917E-1,-1.587228477E-2,-2.958844975E-2,-2.792786807E-2,4.367346559E-2
6.354072916E-1,-1.981441118E-2,-2.532202937E-2,-2.615300193E-2,4.144629744E-2
6.454312917E-1,-3.445433825E-2,-3.062411770E-2,-2.018592507E-2,5.032305218E-2
6.554562916E-1,-5.400370806E-2,-3.947021067E-2,-1.938546449E-2,6.964261805E-2
6.654812917E-1,-6.291970611E-2,-4.220261425E-2,-2.144195698E-2,7.873822188E-2
6.755052917E-1,-6.138734519E-2,-4.043638334E-2,-2.035762928E-2,7.627542407E-2
6.855302916E-1,-5.040100589E-2,-2.696505189E-2,-1.942339353E-2,6.037088400E-2
6.955552917E-1,-3.629222512E-2,-8.939269930E-3,-2.015839517E-2,4.246642258E-2
7.055792916E-1,-2.451918833E-2,1.890740241E-3,-2.407537028E-2,3.441495241E-2
7.156042916E-1,-1.904228330E-2,-3.420842811E-3,-3.122066520E-2,3.672928878E-2
7.256292917E-1,-2.145138010E-2,-8.322656155E-3,-3.845141456E-2,4.481003900E-2
7.356542916E-1,-3.195594996E-2,-1.542131416E-2,-4.199394956E-2,5.497719044E-2
7.456782917E-1,-3.995236009E-2,-1.645595208E-2,-4.375962541E-2,6.149710767E-2
7.557032916E-1,-5.326451361E-2,-1.714465395E-2,-3.127436340E-2,6.410252238E-2
7.657282916E-1,-6.704290211E-2,-6.611319259E-3,-1.857108623E-2,6.988093810E-2
7.757488333E-1,-7.106772065E-2,4.388368689E-5,-1.498838887E-3,7.108353791E-2
7.857738333E-1,-6.294988096E-2,2.822093433E-3,8.553529158E-3,6.359099453E-2
7.957988333E-1,-5.241100863E-2,1.083177142E-2,8.231702261E-3,5.414796413E-2
8.058228333E-1,-3.830557689E-2,1.181021612E-2,3.756525926E-3,4.026052549E-2
8.158478333E-1,-3.148548305E-2,3.681057133E-3,-2.428236650E-3,3.179280041E-2
8.258728333E-1,-2.715651691E-2,-1.336130872E-2,-1.706786221E-3,3.031359597E-2
8.358968333E-1,-2.487053536E-2,-2.173670940E-2,-1.075048000E-3,3.304820408E-2
8.459218333E-1,-2.488571592E-2,-2.561720088E-2,5.603893194E-3,3.615167294E-2
8.559468333E-1,-1.879675873E-2,-1.233866811E-2,1.581789553E-2,2.749121111E-2
8.659718333E-1,-1.009088568E-2,7.616665214E-3,2.215595543E-2,2.550933014E-2
8.759958333E-1,-7.492896169E-3,1.574970223E-2,2.538228035E-2,3.079702533E-2
8.860208333E-1,-5.706181284E-3,4.654440098E-3,2.145065367E-2,2.267939286E-2
8.960458333E-1,-5.664636381E-3,-1.780415187E-3,6.974937860E-3,9.160116905E-3
9.060698333E-1,-1.115154754E-2,1.084081014E-3,5.034566857E-4,1.121542299E-2
9.160948333E-1,-2.534929663E-2,1.546714269E-2,7.931726053E-3,3.073648680E-2
9.261198333E-1,-3.376515210E-2,1.902166381E-2,1.662534848E-2,4.217002967E-2
9.361448333E-1,-3.649454936E-2,1.876441203E-2,2.191269584E-2,4.652011964E-2
9.461688333E-1,-2.966726944E-2,1.809276268E-2,2.411699295E-2,4.229804116E-2
9.561938333E-1,-2.319540828E-2,4.020320252E-3,2.713102289E-2,3.592050032E-2
9.662188333E-1,-2.282229811E-2,-3.471684409E-3,2.825487591E-2,3.648626997E-2
9.762428333E-1,-2.218994871E-2,-1.037323149E-3,2.575616539E-2,3.401249650E-2
9.862678333E-1,-1.893423498E-2,4.160101991E-3,2.543232404E-2,3.197834906E-2
9.962928333E-1,-1.563495956E-2,4.928050563E-3,2.989655361E-2,3.409606371E-2
1.006316833E0,-9.323799983E-3,4.197811708E-3,3.891987726E-2,4.024067240E-2
1.016341833E0,-3.087437712E-3,4.749200307E-4,4.911728576E-2,4.921651736E-2
1.026366833E0,1.746998518E-3,-2.744841622E-3,5.402788892E-2,5.412576966E-2
1.036390833E0,7.857450284E-3,-1.623255201E-3,4.919257015E-2,4.984258661E-2
1.046415833E0,1.161410473E-2,-7.934139576E-4,4.134823009E-2,4.295571052E-2
1.056440833E0,1.149918977E-2,-3.307242645E-3,3.935343772E-2,4.113225352E-2
1.066465833E0,7.699924521E-3,-6.499573588E-3,3.919098526E-2,4.046562270E-2
1.076489833E0,3.055335023E-3,-3.707709257E-3,4.202022031E-2,4.229398415E-2
1.086514833E0,-4.887010437E-3,1.976275351E-3,5.010744184E-2,5.038396832E-2
1.096539833E0,-7.883981802E-3,3.505622968E-3,5.746839195E-2,5.811249982E-2
1.106563833E0,-3.387500532E-3,1.942879986E-3,5.640418828E-2,5.653921115E-2
1.116588833E0,-1.743550296E-3,9.603625163E-3,5.403722078E-2,5.491166373E-2
1.126613833E0,1.426410396E-3,7.760451175E-3,5.397463962E-2,5.454833610E-2
1.136637833E0,3.638432128E-3,2.917492762E-3,5.054608360E-2,5.076077737E-2
1.146662833E0,5.787868984E-3,-2.495115623E-3,4.367459565E-2,4.412703633E-2
1.156687833E0,4.411700182E-3,-2.809335478E-3,3.519496322E-2,3.558146849E-2
1.166712833E0,1.266240724E-3,-2.542220522E-3,2.871655673E-2,2.885666095E-2
1.176736833E0,-2.212645253E-3,-7.889833301E-3,2.436181530E-2,2.570298258E-2
1.186761833E0,-7.013214054E-5,-1.475519687E-2,2.184299752E-2,2.635976657E-2
1.196786833E0,9.815748781E-3,-1.669938490E-2,1.788361184E-2,2.636364832E-2
1.206810833E0,1.718018763E-2,-1.316217519E-2,1.688545756E-2,2.745032568E-2
1.216835833E0,2.247407660E-2,-5.359740928E-3,1.681031287E-2,2.857267157E-2
1.226860833E0,2.138723992E-2,-3.638273338E-3,1.422811300E-2,2.594398319E-2
1.236884833E0,1.640009135E-2,-8.794654161E-3,9.534426033E-3,2.090966805E-2
1.246909833E0,7.176767103E-3,-9.213568643E-3,1.026425045E-3,1.172388082E-2
1.256934833E0,-6.256619003E-3,-1.318359561E-2,-4.164098762E-3,1.517538115E-2
1.266959833E0,-1.220239233E-2,-2.028864436E-2,-3.883667756E-3,2.399188079E-2
1.276983833E0,-1.107381843E-2,-2.913460881E-2,1.352202147E-3,3.119748925E-2
1.287008833E0,-1.058805827E-2,-1.684705168E-2,5.600742996E-3,2.067119857E-2
1.297033833E0,-2.688020933E-3,-8.881077170E-3,9.902122431E-3,1.357022538E-2
1.307057833E0,1.601799042E-3,-6.200338248E-3,1.373574231E-2,1.515521598E-2
1.317082833E0,1.533279195E-3,-8.144596592E-3,8.620541543E-3,1.195822458E-2
1.327107833E0,-5.469502881E-3,-7.014084142E-3,-5.911795888E-3,1.067998917E-2
1.337131833E0,-1.058547292E-2,-1.051661465E-2,-1.766768843E-2,2.312571372E-2
1.347156833E0,-1.623670198E-2,-2.271442488E-2,-2.294394374E-2,3.613862398E-2
1.357181833E0,-1.332291774E-2,-2.741133980E-2,-2.561620809E-2,3.981296025E-2
1.367206833E0,-7.166488096E-3,-1.609823108E-2,-2.135887928E-2,2.768958865E-2
1.377230833E0,2.591182012E-3,-4.501262680E-3,-1.322758570E-2,1.421072178E-2
1.387255833E0,1.347152703E-2,-6.714615040E-3,-7.777159102E-3,1.694261784E-2
1.397280833E0,2.627176233E-2,-1.172205247E-2,-1.522979885E-2,3.255086455E-2
1.407304833E0,3.095040470E-2,-5.851913709E-3,-2.365604043E-2,3.939264772E-2
1.417329833E0,2.454112656E-2,-6.504088175E-3,-3.580524772E-2,4.389289032E-2
1.427354833E0,1.253932528E-2,-2.214084007E-2,-4.363440722E-2,5.051151325E-2
1.437378833E0,-2.302585635E-3,-3.126572073E-2,-4.709595069E-2,5.657628271E-2
1.447403833E0,-1.691694930E-2,-2.884916775E-2,-4.347591847E-2,5.485082625E-2
1.457428833E0,-2.129503340E-2,-1.820114255E-2,-4.035519436E-2,4.912536768E-2
1.467453833E0,-1.380595751E-2,-9.163704701E-3,-3.347624838E-2,3.735287342E-2
1.477477833E0,-8.776976727E-3,-1.555516617E-3,-2.654848620E-2,2.800494728E-2
1.487502833E0,-6.068275310E-3,-3.099350957E-3,-2.194175124E-2,2.297543012E-2
1.497527833E0,-1.371923368E-2,-8.450905792E-3,-1.817550324E-2,2.428958830E-2
1.507551833E0,-2.805210091E-2,-1.277055219E-2,-1.352216210E-2,3.365792977E-2
1.517576833E0,-3.880158812E-2,-8.979946375E-3,-1.322317496E-2,4.196492623E-2
1.527601833E0,-3.611578792E-2,-8.245446719E-3,-1.132354233E-2,3.873706416E-2
1.537625833E0,-2.570882253E-2,-5.498732440E-3,-1.130391657E-2,2.861744476E-2
1.547650833E0,-1.300661080E-2,-4.000172019E-3,-1.704675704E-2,2.181204315E-2
1.557675833E0,-4.499902949E-3,-2.868120326E-3,-2.316813171E-2,2.377472540E-2
1.567700833E0,3.122064052E-3,-5.850594491E-3,-2.887208946E-2,2.962388039E-2
1.577724833E0,2.867620904E-3,-4.510601051E-3,-2.625156567E-2,2.679017490E-2
1.587749833E0,-2.430471592E-3,-2.384067280E-3,-1.741466485E-2,1.774433771E-2
1.597774833E0,-8.695161901E-3,-3.442726564E-3,-1.089686807E-2,1.435966366E-2
1.607798833E0,-1.127549820E-2,-4.286149982E-3,-5.227530841E-3,1.314667334E-2
1.617823833E0,-1.194003318E-2,1.555865165E-4,-3.906137776E-3,1.256369817E-2
1.627848833E0,-4.819273017E-3,2.284251153E-3,-3.741288092E-3,6.514632172E-3
1.637872833E0,9.901084704E-4,4.131211899E-3,-5.880239420E-3,7.254270616E-3
1.647897833E0,1.589319785E-3,6.643087836E-4,-6.898365915E-3,7.110182546E-3
1.657922833E0,2.833282109E-3,-5.728343036E-3,-1.001825929E-2,1.188305182E-2
1.667947833E0,4.011997487E-3,-1.362221874E-2,-1.382950880E-2,1.982211595E-2
1.677971833E0,7.208057679E-3,-1.392835658E-2,-1.592957415E-2,2.235411696E-2
1.687996833E0,9.781736881E-3,-1.094987802E-2,-1.474952698E-2,2.081179356E-2
1.698021833E0,1.049101166E-2,-7.103715558E-3,-9.323905222E-3,1.573083943E-2
1.708045833E0,1.419200655E-2,-6.426474545E-3,-4.247920588E-3,1.614798608E-2
1.718070833E0,1.883686334E-2,-7.589268498E-3,-2.655289136E-4,2.030997101E-2
1.728095833E0,1.823445596E-2,-3.841135651E-3,-1.996583538E-3,1.874129272E-2
1.738119833E0,1.164465491E-2,7.329077460E-3,3.565177321E-4,1.376373747E-2
1.748144833E0,-4.562161630E-4,7.416961715E-3,1.860937569E-3,7.660453179E-3
1.758169833E0,-1.345402002E-2,5.031069741E-4,1.401655376E-3,1.353618887E-2
1.768194833E0,-2.314153500E-2,-5.828558467E-3,-2.878310857E-3,2.403720885E-2
1.778218542E0,-2.554933727E-2,-4.353657365E-3,-7.428281009E-3,2.696112620E-2
1.788243542E0,-1.807730459E-2,3.596677445E-3,-1.380149089E-2,2.302620639E-2
1.798268542E0,-5.484567955E-3,9.750606492E-3,-2.261943370E-2,2.523476954E-2
1.808292542E0,1.286461204E-2,8.752187714E-3,-2.430068888E-2,2.885519906E-2
1.818317542E0,2.373833768E-2,-9.766694158E-3,-2.687127143E-2,3.716130002E-2
1.828342542E0,2.427016944E-2,-2.208674327E-2,-2.993443981E-2,4.441774464E-2
1.838366542E0,2.105849236E-2,-1.425079536E-2,-3.085837513E-2,3.998480442E-2
1.848391542E0,1.471350994E-2,-6.113506854E-3,-2.955875173E-2,3.357948994E-2
1.858416542E0,1.036112569E-2,-6.003148388E-3,-2.344125509E-2,2.632267381E-2
1.868441542E0,7.190365810E-3,-1.061494462E-2,-2.001669630E-2,2.377070762E-2
1.878465542E0,2.592989244E-3,-6.882174872E-3,-1.657130197E-2,1.812997444E-2
1.888490542E0,7.708545309E-4,-1.073554158E-3,-1.907973364E-2,1.912545349E-2
1.898515542E0,-2.991271322E-4,-8.924119174E-5,-2.431533486E-2,2.431733847E-2
1.908539542E0,-1.999289263E-3,-6.558058783E-3,-2.505755797E-2,2.597857779E-2
1.918564542E0,-5.325157661E-3,-9.008933790E-3,-1.772627234E-2,2.058491981E-2
1.928589542E0,-4.699847661E-3,-4.806998186E-3,-1.186492201E-2,1.363716150E-2
1.938613542E0,3.179189283E-3,-1.897469163E-3,-1.239332929E-2,1.293453689E-2
1.948638542E0,1.964871027E-2,-7.532185409E-3,-1.522693224E-2,2.597431612E-2
1.958663542E0,2.583532780E-2,-2.008447424E-2,-2.159107104E-2,3.920490552E-2
1.968688542E0,2.507206611E-2,-2.840019576E-2,-2.413998172E-2,4.492124593E-2
1.978712542E0,1.811250299E-2,-2.145943977E-2,-2.510195225E-2,3.766534650E-2
1.988737542E0,1.288338657E-2,-1.015725080E-2,-2.549530007E-2,3.031767997E-2
1.998762542E0,1.282991469E-2,-3.671342274E-3,-2.323415875E-2,2.679387240E-2
2.008786542E0,2.046626247E-2,3.858745797E-3,-2.282056957E-2,3.089556950E-2
2.018811542E0,2.798727527E-2,7.867638022E-3,-2.758608572E-2,4.007716845E-2
2.028836542E0,3.418818116E-2,1.291619334E-2,-3.362613544E-2,4.966262947E-2
2.038860542E0,3.172190487E-2,1.474087499E-2,-3.322339803E-2,4.824279035E-2
2.048885542E0,2.511326969E-2,2.270532399E-2,-3.018473089E-2,4.535775602E-2
2.058910542E0,2.346051112E-2,2.795560658E-2,-2.678909525E-2,4.527214536E-2
2.068935542E0,2.922811918E-2,3.252825141E-2,-2.518054657E-2,5.046216420E-2
2.078959542E0,3.820363805E-2,3.614196554E-2,-1.921525225E-2,5.599094170E-2
2.088984542E0,5.118069053E-2,3.664183989E-2,-1.581333019E-2,6.490107029E-2
2.099009542E0,6.882892549E-2,3.783174232E-2,-1.758113503E-2,8.048452037E-2
2.109033542E0,8.112847060E-2,3.896038979E-2,-1.770870201E-2,9.172425438E-2
2.119058542E0,7.552485168E-2,2.394237183E-2,-1.471745223E-2,8.058438925E-2
2.129083542E0,5.487896502E-2,-2.641036175E-3,-1.113869622E-2,5.606020360E-2
2.139108542E0,3.097669221E-2,-1.986641809E-2,-1.013630535E-2,3.817033815E-2
2.149132542E0,1.170659345E-2,-2.028772980E-2,-7.123471238E-3,2.448224158E-2
2.159157542E0,1.777719939E-3,-1.157987490E-2,-3.580441698E-4,1.172100621E-2
2.169182542E0,5.116791464E-3,2.667504363E-3,6.051119417E-3,8.361410205E-3
2.179206542E0,1.701271348E-2,1.510068960E-2,8.634991013E-3,2.433159091E-2
2.189231542E0,2.808906697E-2,1.755825430E-2,9.167622775E-3,3.437052930E-2
2.199256542E0,2.910241857E-2,5.970553495E-3,1.128255203E-2,3.177883346E-2
2.209280542E0,2.041305602E-2,7.757534273E-3,1.328977570E-2,2.556345697E-2
2.219305542E0,8.187377825E-3,1.582423598E-2,1.693885773E-2,2.458382601E-2
2.229330542E0,-2.757149283E-3,1.555099711E-2,2.161057480E-2,2.676662710E-2
2.239354542E0,-8.212957531E-3,8.603828028E-3,2.009165660E-2,2.334851586E-2
2.249379542E0,-6.930113304E-3,1.124074101E-3,1.557520218E-2,1.708440622E-2
2.259404542E0,-4.401613027E-3,-7.521358319E-3,1.011893526E-2,1.335432061E-2
2.269429542E0,3.748991294E-3,-7.887542248E-3,6.271199789E-3,1.075156757E-2
2.279453542E0,5.311944522E-3,-1.250584610E-3,8.557036519E-3,1.014906845E-2
2.289478542E0,7.299728226E-3,6.598017178E-3,1.682881452E-2,1.949432895E-2
2.299503542E0,8.810975589E-3,3.774938872E-3,2.220715396E-2,2.418762372E-2
2.309527542E0,9.985961951E-3,1.320838835E-2,2.676382475E-2,3.147194424E-2
2.319552542E0,7.673901040E-3,1.535807922E-2,3.202970698E-2,3.634090649E-2
2.329577542E0,1.957692206E-3,7.718003355E-3,3.433813527E-2,3.524922224E-2
2.339602542E0,-6.834028754E-4,8.069331758E-3,3.337843344E-2,3.434677529E-2
2.349626542E0,-1.322295284E-3,1.182944886E-2,2.817568183E-2,3.058681696E-2
2.359651542E0,1.864900114E-3,1.362959575E-2,2.327406779E-2,2.703564248E-2
2.369676542E0,9.525482543E-3,1.552709844E-2,1.827611029E-2,2.580391077E-2
2.379700542E0,1.767454669E-2,1.686511561E-2,1.634437218E-2,2.939320036E-2
2.389725542E0,2.202535234E-2,1.647789218E-2,1.692787185E-2,3.229845077E-2
2.399750542E0,2.298713289E-2,1.183929015E-2,1.530437544E-2,3.004664669E-2
2.409774542E0,2.687135339E-2,5.077258218E-3,1.850682683E-2,3.302046068E-2
2.419799542E0,2.867144346E-2,2.009137534E-4,1.675921679E-2,3.321089255E-2
2.429824542E0,2.667194232E-2,3.652307205E-4,1.409419067E-2,3.016905884E-2
2.439849542E0,2.770243213E-2,7.589430083E-3,1.384121738E-2,3.188422013E-2
2.449873542E0,2.861776017E-2,1.193464361E-2,1.707749069E-2,3.539848306E-2
2.459898542E0,2.764479443E-2,7.684412878E-3,2.425767109E-2,3.757285546E-2
2.469923542E0,2.777635306E-2,4.173834343E-3,2.384221740E-2,3.684288280E-2
2.479947542E0,3.026091121E-2,4.525892437E-3,1.700936258E-2,3.500749727E-2
2.489972542E0,3.776010871E-2,5.303801969E-3,2.772370819E-3,3.823142902E-2
2.499997542E0,4.032750800E-2,4.643162712E-3,-7.169241086E-3,4.122214065E-2
2.510021542E0,3.668323904E-2,3.458855208E-3,-9.151432663E-3,3.796541091E-2
2.520046542E0,2.738688700E-2,-2.678587101E-3,-6.330625154E-3,2.823638120E-2
2.530071542E0,2.122486383E-2,-1.398503780E-2,-5.062916316E-4,2.542306941E-2
2.540096542E0,2.177052572E-2,-1.823646948E-2,1.191418618E-3,2.842435729E-2
2.550120542E0,2.708459646E-2,-1.905965246E-2,8.521322161E-4,3.312962189E-2
2.560145542E0,3.343511373E-2,-3.390191821E-3,-2.542449860E-3,3.370258569E-2
2.570170542E0,3.128194809E-2,1.737394184E-2,-3.552320646E-3,3.595876963E-2
2.580194542E0,2.042703703E-2,2.086394280E-2,1.165654045E-3,2.922202424E-2
2.590219542E0,9.536839090E-3,1.333838422E-2,6.882395130E-3,1.778288942E-2
2.600244542E0,-4.864812363E-4,1.224446110E-2,1.535652578E-2,1.964653597E-2
2.610268542E0,-5.164856091E-3,1.511508320E-2,2.243307605E-2,2.753877956E-2
2.620293542E0,-1.820819918E-3,1.612709649E-2,2.425892092E-2,2.918722102E-2
2.630318542E0,5.079430528E-3,1.178427972E-2,2.560168691E-2,2.863767162E-2
2.640343542E0,1.786967926E-2,7.321262266E-3,1.616001315E-2,2.518079314E-2
2.650367542E0,2.654279582E-2,3.723864211E-3,8.074123412E-3,2.799247477E-2
2.660392542E0,3.480767086E-2,1.680524787E-3,3.666197881E-4,3.485014382E-2
2.670417542E0,3.621675074E-2,2.942596795E-3,1.687015407E-3,3.637523788E-2
2.680441542E0,2.884032577E-2,4.870193079E-3,1.233033929E-2,3.174146245E-2
2.690466542E0,1.825239509E-2,1.124190399E-3,2.668450773E-2,3.234929185E-2
2.700491542E0,8.246556856E-3,-5.106831901E-3,3.605514392E-2,3.733709731E-2
2.710515542E0,7.244675420E-3,-6.830962375E-3,3.737394139E-2,3.867762744E-2
2.720540542E0,1.085776743E-2,3.485493362E-4,3.231878206E-2,3.409569290E-2
2.730565542E0,1.519712154E-2,7.663720287E-3,2.600149438E-2,3.107672476E-2
2.740590542E0,2.093455940E-2,1.355340588E-3,1.519485191E-2,2.590320926E-2
2.750614542E0,1.931322739E-2,-1.116417907E-2,1.239666902E-2,2.552091395E-2
2.760639542E0,1.140974555E-2,-2.066631801E-2,1.883687824E-2,3.020110885E-2
2.770664292E0,-3.029380925E-3,-2.376384102E-2,2.587960847E-2,3.526544234E-2
2.780688292E0,-1.326097921E-2,-3.121575713E-2,3.870502114E-2,5.146217761E-2
2.790713292E0,-1.740166359E-2,-4.321729019E-2,4.937471077E-2,6.788530129E-2
2.800738292E0,-1.881498285E-2,-5.534642935E-2,5.116866902E-2,7.768824564E-2
2.810763292E0,-2.131569013E-2,-7.195843011E-2,4.736248031E-2,8.874445814E-2
2.820787292E0,-3.547080979E-2,-4.649372399E-2,4.224172235E-2,7.214019562E-2
2.830812292E0,-3.487745672E-2,-4.973878711E-2,4.637201875E-2,7.642478691E-2
2.840837292E0,-2.390455082E-2,-3.302926570E-2,4.529229924E-2,6.094056378E-2
2.850861292E0,-6.669370923E-3,-1.428939961E-2,4.163498059E-2,4.452122032E-2
2.860886292E0,6.662224419E-3,1.127914526E-3,3.589444235E-2,3.652490133E-2
2.870911292E0,8.687824942E-3,-3.680422669E-3,3.185442835E-2,3.322240838E-2
2.880935292E0,-1.591958688E-3,-1.315982454E-2,3.292476386E-2,3.549303297E-2
2.890960292E0,-1.691525429E-2,-1.506771147E-2,3.435434774E-2,4.115073469E-2
2.900985292E0,-2.586805634E-2,4.348124377E-3,3.954317793E-2,4.745234921E-2
2.911010292E0,-2.784092724E-2,2.381130494E-2,4.326121882E-2,5.668887480E-2
2.921034292E0,-2.578023262E-2,2.323589288E-2,3.922604024E-2,5.237565604E-2
2.931059292E0,-2.258976549E-2,5.366880447E-3,2.638134733E-2,3.514365373E-2
2.941084292E0,-2.190451697E-2,-6.453047507E-3,1.275885850E-2,2.615794632E-2
2.951108292E0,-2.500336990E-2,-1.386117423E-3,1.123979129E-2,2.744854706E-2
2.961133292E0,-3.295959905E-2,1.201961935E-2,1.396760531E-2,3.776109660E-2
2.971158292E0,-3.791094944E-2,1.457039546E-2,2.814307809E-2,4.941223893E-2
2.981182292E0,-3.088909015E-2,1.154159568E-2,3.477326408E-2,4.792206398E-2
2.991207292E0,-2.434010990E-2,1.570544764E-2,3.558845818E-2,4.588725740E-2
3.001232292E0,-1.721309125E-2,2.780505829E-2,3.423565626E-2,4.734439710E-2
3.011257292E0,-1.088249218E-2,3.020429984E-2,2.838335931E-2,4.285257811E-2
3.021281292E0,-4.456113093E-3,2.278128266E-2,2.329830080E-2,3.288851781E-2
3.031306292E0,1.340789953E-3,1.235474087E-2,1.771791279E-2,2.164166753E-2
3.041331292E0,7.311369991E-4,2.131601796E-3,1.789403707E-2,1.803537774E-2
3.051355292E0,-5.471803015E-4,6.433672272E-3,1.672358066E-2,1.792678709E-2
3.061380292E0,1.278891461E-3,1.252028067E-2,1.740789600E-2,2.148087136E-2
3.071405292E0,4.011294805E-3,1.947086677E-2,1.731468365E-2,2.636291730E-2
3.081430292E0,1.181108318E-2,1.201666892E-2,1.624365523E-2,2.340423793E-2
3.091454292E0,1.828682609E-2,1.236820687E-2,1.745858975E-2,2.814574400E-2
3.101479292E0,2.181072161E-2,2.403989993E-2,1.819319278E-2,3.721043710E-2
3.111504292E0,1.884795539E-2,3.346163407E-2,2.153093182E-2,4.402848398E-2
3.121528292E0,1.184410695E-2,3.519641608E-2,2.432059310E-2,4.439101061E-2
3.131553292E0,2.407728694E-3,2.886182070E-2,2.587374859E-2,3.883622944E-2
3.141578292E0,-6.062531378E-3,2.139390074E-2,2.827851661E-2,3.597398750E-2
3.151602292E0,-2.836111933E-3,7.633614354E-3,2.580257505E-2,2.705713359E-2
3.161627292E0,4.676418379E-3,5.102383438E-3,2.177875489E-2,2.285207584E-2
3.171652292E0,1.403396763E-2,1.188252494E-2,2.070550248E-2,2.769231806E-2
3.181677292E0,2.314272150E-2,1.431753207E-2,1.805218123E-2,3.265667666E-2
3.191701292E0,3.159133345E-2,7.739523426E-3,1.271707006E-2,3.492329370E-2
3.201726292E0,2.657133155E-2,3.606219776E-3,1.040386222E-2,2.876248999E-2
3.211751292E0,1.468990371E-2,1.348867826E-2,1.855686307E-2,2.724141845E-2
3.221775292E0,3.183792345E-3,2.240336873E-2,2.548157796E-2,3.407870713E-2
3.231800292E0,-1.243180246E-3,1.085377112E-2,2.996953577E-2,3.189863506E-2
3.241825292E0,1.169378171E-3,-2.873101505E-3,2.555278689E-2,2.574037830E-2
3.251850292E0,4.867177457E-3,2.261739224E-3,1.149103139E-2,1.268261341E-2
3.261874292E0,-7.634117501E-4,1.848898269E-2,1.378025394E-3,1.855597565E-2
3.271899292E0,-1.006556675E-2,2.904096060E-2,1.455789432E-3,3.077031604E-2
3.281924292E0,-2.231749706E-2,1.979282126E-2,6.996911485E-3,3.063956949E-2
3.291948292E0,-3.015198372E-2,7.254925091E-3,1.055329666E-2,3.275893971E-2
3.301973292E0,-3.476830572E-2,1.944972435E-3,1.408555172E-2,3.756355638E-2
3.311998292E0,-3.284044191E-2,-4.096941091E-3,1.622380316E-2,3.685771751E-2
3.322022292E0,-2.843563259E-2,-2.231442370E-3,1.480928063E-2,3.213844005E-2
3.332047292E0,-2.204857394E-2,2.838151297E-3,1.179538108E-2,2.516596373E-2
3.342072292E0,-1.257597655E-2,-2.383508720E-3,1.424682140E-2,1.915223799E-2
3.352097292E0,-2.508428413E-3,-1.182015333E-2,1.193919219E-2,1.698683455E-2
3.362121292E0,3.643834498E-3,-9.814664721E-3,8.553695865E-3,1.351927832E-2
3.372146292E0,6.724845618E-3,-5.221776664E-3,4.519007169E-3,9.639083250E-3
3.382171292E0,1.608408801E-2,-3.795400029E-3,1.928036101E-3,1.663791669E-2
3.392195292E0,1.970438845E-2,-7.268961519E-3,2.618859988E-3,2.116504556E-2
3.402220292E0,1.908514649E-2,-5.051658489E-3,1.469322480E-3,1.979699418E-2
3.412245292E0,1.423819363E-2,1.075739786E-2,4.936225247E-3,1.851523930E-2
3.422270292E0,4.423874430E-3,2.097387426E-2,1.752455346E-2,2.768725411E-2
3.432294292E0,-8.363559842E-3,8.356615901E-3,2.584639937E-2,2.842214845E-2
3.442319292E0,-1.316164341E-2,-8.010976948E-3,2.090535499E-2,2.596995333E-2
3.452344292E0,-8.106697351E-3,-6.340375170E-3,6.779150572E-3,1.232378926E-2
3.462368292E0,7.482749643E-4,8.499083109E-3,3.024423495E-4,8.537318109E-3
3.472393292E0,5.005337764E-3,9.633589536E-3,5.070033949E-3,1.198184868E-2
3.482418292E0,2.844717819E-3,-4.796092398E-3,1.261940133E-2,1.379652897E-2
3.492442292E0,5.363801494E-3,-1.141058560E-2,1.124440972E-2,1.689403978E-2
3.502467292E0,1.027080789E-2,-5.062869750E-3,4.014807753E-3,1.213428309E-2
3.512492292E0,1.230066922E-2,-1.483314903E-3,3.427847289E-3,1.285522552E-2
3.522517292E0,6.881402805E-3,-2.702243859E-3,2.781764138E-3,7.898989693E-3
3.532541292E0,3.058967646E-3,-9.196894243E-3,1.040323172E-3,9.747944352E-3
3.542566292E0,2.957957098E-3,-5.897654220E-3,-8.314144798E-4,6.650044025E-3
3.552591292E0,2.463940764E-3,2.075584140E-3,1.149178483E-3,3.420477276E-3
3.562615292E0,6.960005267E-4,2.783523640E-3,3.223329317E-3,4.315353111E-3
3.572640292E0,1.397743355E-3,5.148677155E-3,5.842548329E-3,7.911885611E-3
3.582665292E0,1.168331830E-3,8.159413934E-3,1.013010740E-2,1.305986642E-2
3.592690292E0,8.839062648E-4,-4.188066814E-3,1.184571534E-2,1.259532318E-2
3.602714292E0,4.632819444E-3,-1.938842982E-2,6.316243671E-3,2.091098183E-2
3.612739292E0,1.099750772E-2,-2.054983377E-2,-1.098795794E-3,2.333341373E-2
3.622764292E0,2.008147351E-2,5.852329545E-3,-8.593531325E-3,2.261336154E-2
3.632788292E0,2.287353203E-2,2.493201569E-2,-6.334371399E-3,3.442278511E-2
3.642813292E0,1.313199289E-2,1.169924159E-2,-1.589250984E-3,1.765919618E-2
3.652838292E0,-2.215271350E-3,-1.039327774E-2,-4.644695669E-3,1.159745003E-2
3.662862292E0,-1.748897508E-2,-2.236280963E-2,-7.762873080E-3,2.943164457E-2
3.672887292E0,-2.655570768E-2,-1.705406420E-2,-1.928377897E-4,3.156079692E-2
3.682912292E0,-2.542319894E-2,-8.939043619E-5,8.400997147E-3,2.677543255E-2
3.692937292E0,-1.833652705E-2,8.324334398E-3,1.381919906E-2,2.442320679E-2
3.702961292E0,-8.328477852E-3,1.148486324E-2,1.109688915E-2,1.801129023E-2
3.712986292E0,-1.773409895E-4,9.160988964E-3,4.759631120E-3,1.032517588E-2
3.723011292E0,6.659638137E-3,7.055728231E-3,1.217756886E-3,9.778395206E-3
3.733035292E0,2.806576900E-3,-5.420041271E-4,-2.576714847E-3,3.848389504E-3
3.743060292E0,-3.991923761E-3,-1.949238358E-3,-2.013343154E-3,4.877349295E-3
3.753085292E0,-6.303281058E-3,3.766437992E-3,-7.369759027E-3,1.040340114E-2
3.763110292E0,-1.990688615E-4,5.956517532E-3,-1.108881366E-2,1.258894427E-2
3.773134917E0,1.067142189E-2,-2.223914256E-3,-8.897032589E-3,1.407061578E-2
3.783159917E0,1.623522304E-2,-8.010456339E-3,-9.911660105E-3,2.063954660E-2
3.793184917E0,2.005206607E-2,-8.154000156E-3,-1.535782497E-2,2.654121060E-2
3.803208917E0,2.269363776E-2,-2.397558885E-3,-2.167974785E-2,3.147635541E-2
3.813233917E0,1.955190673E-2,-1.658531604E-3,-1.991860010E-2,2.796030068E-2
3.823258917E0,8.199475706E-3,-4.093453288E-3,-8.208072744E-3,1.230285413E-2
3.833282917E0,-6.889728364E-3,4.767975770E-4,4.550067242E-3,8.270356991E-3
3.843307917E0,-1.868650317E-2,8.819597773E-3,1.131549757E-2,2.355867549E-2
3.853332917E0,-2.519899607E-2,1.020390913E-2,1.325161662E-2,3.024424751E-2
3.863357917E0,-2.280595526E-2,-2.871439094E-3,6.484560668E-3,2.388317996E-2
3.873381917E0,-1.095462125E-2,-8.694441058E-3,-6.010725163E-3,1.522254410E-2
3.883406917E0,1.886910410E-3,6.466753781E-3,-1.548911817E-2,1.689059256E-2
3.893431917E0,1.373371575E-2,1.717772149E-2,-1.656476967E-2,2.753326457E-2
3.903455917E0,2.036649175E-2,1.837627962E-2,-1.093795709E-2,2.953168712E-2
3.913480917E0,1.993079856E-2,1.010636613E-2,-9.979218245E-3,2.447366267E-2
3.923505917E0,1.502003986E-2,8.250785060E-3,-1.231078990E-2,2.110053553E-2
3.933530917E0,1.191346347E-2,4.394793883E-3,-1.104978286E-2,1.683278130E-2
3.943554917E0,1.696220785E-2,2.519104630E-3,-1.088223420E-2,2.030973669E-2
3.953579917E0,2.426086739E-2,3.145480063E-3,-2.465845784E-3,2.458788577E-2
3.963604917E0,3.012954071E-2,6.627101451E-3,7.976755500E-3,3.186434254E-2
3.973628917E0,2.874469757E-2,3.822552972E-4,1.936629787E-2,3.466204337E-2
3.983653917E0,2.075626329E-2,-5.460167304E-3,2.874716930E-2,3.587527889E-2
3.993678917E0,7.695321925E-3,-1.791130984E-3,3.504421189E-2,3.592384886E-2
4.003703917E0,-8.961121202E-4,6.600841880E-5,3.397781774E-2,3.398969657E-2
4.013727917E0,-5.595526192E-3,2.089211950E-3,3.148589656E-2,3.204740866E-2
4.023752917E0,-5.333719775E-3,8.155873045E-3,2.808701433E-2,2.972956787E-2
4.033777917E0,-9.070131928E-4,1.316208299E-2,2.249890566E-2,2.608186837E-2
4.043801917E0,6.515540183E-3,1.582289301E-2,2.121058479E-2,2.725261665E-2
4.053826917E0,1.029749494E-2,1.004303433E-2,1.789255254E-2,2.295744709E-2
4.063851917E0,1.027506776E-2,2.006100956E-3,1.137168519E-2,1.545692992E-2
4.073875917E0,9.996767156E-3,-1.107241679E-2,5.823522341E-3,1.601396826E-2
4.083900917E0,1.488568541E-2,-1.186680421E-2,4.404193256E-3,1.953974387E-2
4.093925917E0,2.183014341E-2,-6.692282856E-3,1.235479489E-2,2.596117809E-2
4.103950917E0,2.808273211E-2,-4.470037296E-3,1.435797475E-2,3.185549427E-2
4.113974917E0,3.277655318E-2,2.186800120E-3,1.892928965E-2,3.791309194E-2
4.123999917E0,2.802887931E-2,3.694636514E-3,2.502461523E-2,3.775579137E-2
4.134024917E0,2.127936296E-2,1.085803960E-3,2.491675690E-2,3.278467680E-2
4.144048917E0,1.217919029E-2,-2.106436063E-3,1.727771573E-2,2.124356867E-2
4.154073917E0,5.299712997E-3,-4.774657078E-3,9.163063020E-3,1.161232242E-2
4.164098917E0,-3.280764911E-3,-7.139343768E-3,5.702547729E-3,9.708382896E-3
4.174123917E0,-7.188154850E-3,-3.252727212E-3,1.337360125E-3,8.002395677E-3
4.184147917E0,7.229002658E-4,4.888609983E-3,2.016488928E-3,5.337351399E-3
4.194172917E0,1.054596994E-2,7.239648141E-3,4.396022763E-3,1.352608603E-2
4.204197917E0,1.590870135E-2,9.214232676E-3,7.757397834E-3,1.995409941E-2
4.214221917E0,1.865788177E-2,1.206594519E-2,8.390430361E-3,2.375085066E-2
4.224246917E0,2.141802385E-2,7.377515547E-3,1.004053093E-2,2.477845320E-2
4.234271917E0,1.914395019E-2,6.697077770E-3,7.515055127E-3,2.162909460E-2
4.244295917E0,1.025663409E-2,6.022634916E-3,5.928333849E-3,1.328968835E-2
4.254320917E0,3.604324535E-3,-1.511181938E-3,3.967980854E-3,5.569533038E-3
4.264345917E0,2.533263061E-3,-9.914494120E-3,-1.465606969E-3,1.033743775E-2
4.274370917E0,5.861149170E-3,-5.209753290E-3,-8.106731810E-3,1.127890507E-2
4.284394917E0,6.582900882E-3,5.906966981E-4,-5.095432978E-3,8.345474453E-3
4.294419917E0,5.145060364E-3,4.201943055E-3,2.983531915E-3,7.282131163E-3
4.304444917E0,2.548104385E-4,4.663968459E-3,7.929686457E-3,9.203122158E-3
4.314468917E0,-7.519222796E-3,2.517993562E-3,1.107354835E-2,1.361992937E-2
4.324493917E0,-1.434235647E-2,6.444733124E-3,1.129115932E-2,1.935789382E-2
4.334518917E0,-1.906760223E-2,8.535314351E-3,8.573669940E-3,2.258169308E-2
4.344543917E0,-2.000094578E-2,5.525131244E-3,4.785341676E-3,2.129470362E-2
4.354567917E0,-2.114637196E-2,8.334403392E-4,-1.779350452E-3,2.123746119E-2
4.364592917E0,-2.084027603E-2,-4.184377380E-3,-5.750001408E-3,2.202018700E-2
4.374617917E0,-1.965223998E-2,-6.238473579E-3,-3.123592120E-3,2.085391849E-2
4.384641917E0,-2.045484260E-2,-4.000983667E-3,4.579527304E-4,2.084749809E-2
4.394666917E0,-1.027890481E-2,2.794338390E-3,1.452909783E-3,1.075058873E-2
4.404691917E0,1.916054171E-3,8.359819651E-3,-7.152390201E-3,1.116756615E-2
4.414716917E0,1.205444243E-2,5.717963446E-3,-1.661034115E-2,2.130511960E-2
4.424740917E0,1.171766501E-2,-5.054821726E-3,-2.221110463E-2,2.561616804E-2
4.434765917E0,5.768163130E-3,-1.171006076E-2,-1.623923145E-2,2.083530338E-2
4.444790917E0,-6.458829157E-3,-7.384055294E-3,-6.177944597E-3,1.159343547E-2
4.454814917E0,-1.666193269E-2,5.132269114E-3,3.193452489E-3,1.772451201E-2
4.464839917E0,-1.543002483E-2,9.580378421E-3,5.059403833E-3,1.885382942E-2
4.474864917E0,-1.469152980E-2,3.296649549E-3,9.785449132E-3,1.795728155E-2
4.484888917E0,-1.517750509E-2,-2.137465402E-3,8.672690019E-3,1.761081972E-2
4.494913917E0,-1.446191315E-2,6.571071222E-3,9.626634419E-3,1.857412176E-2
4.504938917E0,-1.316057798E-2,1.663338393E-2,1.068148017E-2,2.374793238E-2
4.514963917E0,-9.829496033E-3,9.707300924E-3,1.223863102E-2,1.845629358E-2
4.524987917E0,-6.271263584E-3,-2.318982268E-3,1.326490194E-2,1.485476520E-2
4.535012917E0,-5.839032121E-3,-2.246810822E-3,1.072584279E-2,1.241717192E-2
4.545037917E0,-1.786553767E-3,4.132336006E-3,7.699147798E-3,8.918792073E-3
4.555061917E0,4.829004407E-3,7.761159446E-3,6.415504031E-3,1.116752307E-2
4.565086917E0,9.689097293E-3,7.155563682E-3,4.923144355E-3,1.301222688E-2
4.575111917E0,1.019562967E-2,1.868390245E-3,9.475769475E-4,1.040863337E-2
4.585136917E0,4.743416794E-3,-4.968799185E-4,-2.399415709E-3,5.338922014E-3
4.595160917E0,-7.386749145E-3,1.103413408E-3,-4.704114981E-3,8.826680114E-3
4.605185917E0,-2.225934155E-2,4.819042981E-3,-4.603961948E-3,2.323570372E-2
4.615210917E0,-3.181929141E-2,8.438811637E-3,-2.679561730E-3,3.302818340E-2
4.625234917E0,-3.193822131E-2,3.939634655E-3,-5.755340680E-4,3.218543057E-2
4.635259917E0,-1.925837994E-2,3.525513224E-3,-2.126026433E-3,1.969351237E-2
4.645284917E0,1.954497071E-3,8.610286750E-3,-1.099328697E-2,1.409998068E-2
4.655309917E0,1.877848431E-2,1.579735801E-2,-1.968691126E-2,3.146049059E-2
4.665333917E0,2.466669679E-2,1.691834256E-2,-2.629864216E-2,3.982831687E-2
4.675358917E0,2.251379751E-2,1.217338722E-2,-2.705657668E-2,3.724407035E-2
4.685383917E0,1.598164067E-2,1.956889872E-3,-2.330567315E-2,2.832660688E-2
4.695407917E0,6.248852238E-3,-2.093511866E-3,-1.406050753E-2,1.552832310E-2
4.705432917E0,1.724894275E-3,-7.221083157E-3,-9.251747280E-3,1.186229868E-2
4.715457917E0,6.719652563E-3,-2.968813526E-3,-8.969185874E-3,1.159369999E-2
4.725482917E0,1.249274053E-2,2.747428371E-3,-7.206836715E-3,1.468180588E-2
4.735506917E0,1.560837217E-2,5.167709198E-3,-6.304557901E-3,1.760891679E-2
4.745531917E0,1.262856182E-2,2.647027140E-3,-3.484536894E-3,1.336522815E-2
4.755556917E0,3.983940929E-3,-1.043315046E-3,1.842584461E-3,4.511696921E-3
4.765580917E0,-1.014140714E-2,2.594874473E-3,5.651555490E-3,1.189628479E-2
4.775605208E0,-1.770451851E-2,4.046563525E-3,6.803905126E-3,1.939375614E-2
4.785630208E0,-1.119504962E-2,9.174227715E-3,2.301280387E-3,1.465576616E-2
4.795655208E0,-8.659799933E-4,1.017184742E-2,5.007850472E-3,1.137079450E-2
4.805679208E0,9.211652912E-3,5.963701755E-3,5.981439725E-3,1.249791619E-2
4.815704208E0,1.788050681E-2,-3.705437062E-3,3.386189230E-3,1.857172758E-2
4.825729208E0,2.595480904E-2,-6.681304891E-3,-3.004474565E-4,2.680265315E-2
4.835753208E0,2.495292760E-2,4.766026512E-3,-3.333250061E-5,2.540402952E-2
4.845778208E0,2.144381776E-2,1.289457828E-2,8.326353505E-3,2.637111359E-2
4.855803208E0,2.089946717E-2,1.032675896E-2,1.059749722E-2,2.560735492E-2
4.865828208E0,2.292474173E-2,3.877212759E-3,9.168222547E-3,2.499265626E-2
4.875852208E0,2.014599927E-2,-2.971105976E-3,1.052563544E-2,2.292330165E-2
4.885877208E0,8.706086315E-3,-8.570609614E-3,1.017206721E-2,1.589723999E-2
4.895902208E0,1.485723536E-3,-1.109635178E-2,7.811441552E-3,1.365119102E-2
4.905926208E0,1.232139184E-3,-1.061360585E-3,-2.637039870E-4,1.647480820E-3
4.915951208E0,4.738989752E-3,6.944634020E-3,2.020755317E-3,8.646931109E-3
4.925976208E0,6.243559532E-3,4.868343472E-3,1.127607096E-2,1.377797446E-2
4.936000208E0,1.041886397E-2,2.746602986E-3,1.396559644E-2,1.763900333E-2
4.946025208E0,1.814136095E-2,7.191899698E-3,1.190215629E-2,2.285812159E-2
4.956050208E0,2.261733636E-2,7.854494266E-3,7.175578736E-3,2.499451769E-2
4.966075208E0,2.986530028E-2,2.429505344E-3,3.925808240E-3,3.022003686E-2
4.976099208E0,3.289411590E-2,-1.123151509E-3,1.112445258E-3,3.293207956E-2
4.986124208E0,3.475429490E-2,-3.470261348E-3,2.568657044E-3,3.502144667E-2
4.996149208E0,3.214572743E-2,-7.589372806E-3,6.084295921E-3,3.358519061E-2
5.006173208E0,2.576916665E-2,-1.867583487E-4,4.944964312E-3,2.623999810E-2
5.016198208E0,2.450815961E-2,6.388319656E-3,6.255771965E-3,2.608821953E-2
5.026223208E0,1.971209422E-2,5.273390561E-4,1.258392539E-2,2.339230478E-2
5.036248208E0,1.723322272E-2,-2.919323742E-3,1.700956747E-2,2.438917387E-2
5.046272208E0,1.855807006E-2,5.291850772E-3,1.747581922E-2,2.603478262E-2
5.056297208E0,1.867764629E-2,1.205601357E-2,1.824627072E-2,2.875983883E-2
5.066322208E0,2.063705027E-2,1.220057160E-2,1.870946772E-2,3.041029388E-2
5.076346208E0,2.224906161E-2,8.756305091E-3,1.884262636E-2,3.044237490E-2
5.086371208E0,1.874780469E-2,7.160273381E-3,1.784633659E-2,2.685593836E-2
5.096396208E0,7.431498729E-3,4.131460097E-3,1.684205979E-2,1.886666674E-2
5.106421208E0,-7.920215838E-3,5.242413841E-3,2.183448896E-2,2.381087209E-2
5.116445208E0,-2.076330967E-2,3.940926865E-3,2.491869591E-2,3.267395506E-2
5.126470208E0,-2.444461174E-2,-5.246512592E-5,1.893712208E-2,3.092177855E-2
5.136495208E0,-1.367878262E-2,-6.345780566E-3,1.003284380E-2,1.811176357E-2
5.146519208E0,-4.641675390E-3,-1.860119635E-3,-9.063119069E-4,5.081987481E-3
5.156544208E0,9.182061767E-4,-2.288089832E-3,-3.093033331E-3,3.955415635E-3
5.166569208E0,1.660692389E-3,-5.192248616E-3,-6.890110206E-3,8.785838808E-3
5.176594208E0,-1.719391556E-3,-5.507301074E-3,-7.870952599E-3,9.759024913E-3
5.186618208E0,-4.985717125E-3,-2.619978040E-3,-6.877484731E-3,8.889401353E-3
5.196643208E0,-2.092991490E-3,3.173196223E-3,-9.258616716E-3,1.000858487E-2
5.206668208E0,6.523307413E-3,1.028530393E-2,-8.080348372E-3,1.461619124E-2
5.216692208E0,1.162698958E-2,1.173859090E-2,-1.264101081E-2,2.080328236E-2
5.226717208E0,1.429354027E-2,3.104594536E-3,-1.606020704E-2,2.172266215E-2
5.236742208E0,8.540047333E-3,-4.396731034E-3,-2.195990831E-2,2.396875518E-2
5.246767208E0,8.566363249E-5,-7.022865582E-3,-2.106500976E-2,2.220501329E-2
5.256791208E0,-5.665965378E-3,-8.671095595E-3,-2.217474952E-2,2.447469262E-2
5.266816208E0,-7.777585648E-3,-4.926424939E-3,-1.638317294E-2,1.879278736E-2
5.276841208E0,-3.268853994E-3,1.326677273E-3,-9.100493044E-3,9.760351052E-3
5.286865208E0,6.113123149E-3,6.558963098E-3,1.985025592E-4,8.968259297E-3
5.296890208E0,1.590103842E-2,1.164320391E-2,2.783633303E-3,1.990366385E-2
5.306915208E0,1.216123439E-2,1.371969655E-2,3.597459290E-3,1.868334576E-2
5.316940208E0,1.134150196E-3,7.764603011E-3,1.724991016E-3,8.034360621E-3
5.326964208E0,-1.129757799E-2,6.811327301E-3,3.047335893E-3,1.353941299E-2
5.336989208E0,-2.183544077E-2,9.729352780E-3,5.035651848E-3,2.442958388E-2
5.347014208E0,-2.271546610E-2,4.560475238E-3,5.310417619E-3,2.376953659E-2
5.357038208E0,-1.205456723E-2,-1.540560042E-3,-2.070000861E-3,1.232764454E-2
5.367063208E0,-7.310265210E-4,-3.701890819E-5,-1.138403080E-2,1.140753819E-2
5.377088208E0,1.395391021E-2,-3.939880989E-3,-1.780331507E-2,2.296066854E-2
5.387113208E0,2.656152286E-2,-2.155833505E-2,-1.945246011E-2,3.935320204E-2
5.397137208E0,3.545355424E-2,-2.748519927E-2,-1.666013710E-2,4.785343097E-2
5.407162208E0,3.519450128E-2,-2.053086087E-2,-1.059562340E-2,4.210031358E-2
5.417187208E0,2.628542483E-2,-8.603360504E-3,6.255262531E-3,2.835612244E-2
5.427211208E0,1.073920820E-2,1.020256081E-3,2.633618191E-2,2.845990149E-2
5.437236208E0,-6.834991276E-3,-3.339072457E-3,3.769642860E-2,3.845630299E-2
5.447261208E0,-1.734285802E-2,-1.090083830E-2,3.764421493E-2,4.285662046E-2
5.457286208E0,-2.821414731E-2,-1.247902773E-2,3.668946773E-2,4.793622100E-2
5.467310208E0,-3.769683093E-2,-8.773419075E-3,3.572120517E-2,5.266904635E-2
5.477335208E0,-4.620589688E-2,-1.095747761E-2,3.537579253E-2,5.921568981E-2
5.487360208E0,-4.713880271E-2,-1.035279781E-2,3.696639836E-2,6.079277713E-2
5.497384208E0,-4.227187485E-2,-1.080686599E-2,3.672005609E-2,5.702685573E-2
5.507409208E0,-2.822537161E-2,-7.261570077E-3,2.882445604E-2,4.099086811E-2
5.517434208E0,-1.034064684E-2,-8.293012157E-3,1.814544573E-2,2.247132014E-2
5.527459208E0,9.082925506E-3,-7.613345981E-3,6.958801765E-3,1.374363470E-2
5.537483208E0,2.830455825E-2,-5.079082213E-3,-1.632821979E-3,2.880297209E-2
5.547508208E0,3.497938812E-2,1.850973349E-4,-7.841951214E-3,3.584812482E-2
5.557533208E0,3.648354113E-2,-4.084216431E-3,-6.468026433E-3,3.727686901E-2
5.567557208E0,3.552971408E-2,-1.039608382E-2,-5.180951674E-3,3.738022741E-2
5.577582208E0,3.179063648E-2,-1.047038566E-2,-8.179937489E-3,3.445554993E-2
5.587607208E0,3.436666727E-2,-6.682103965E-3,-1.338722091E-2,3.748247612E-2
5.597632208E0,3.654220328E-2,2.453337191E-3,-1.837292500E-2,4.097457574E-2
5.607656208E0,3.272895887E-2,4.896982573E-3,-2.037543617E-2,3.886288186E-2
5.617681208E0,2.323931828E-2,2.811461221E-3,-2.053123154E-2,3.113682220E-2
5.627706208E0,1.629887708E-2,7.279673591E-3,-2.219405398E-2,2.848197805E-2
5.637730208E0,9.041230194E-3,1.089464780E-2,-1.912289672E-2,2.379332623E-2
5.647755208E0,1.056225318E-2,2.144622430E-2,-1.702521183E-2,2.934892787E-2
5.657780208E0,1.021817327E-2,2.536692843E-2,-7.185097784E-3,2.827574496E-2
5.667805208E0,5.605296232E-3,2.466786839E-2,3.311372362E-3,2.551251191E-2
5.677829208E0,1.937532797E-4,1.522190124E-2,1.003399026E-2,1.823251980E-2
5.687854208E0,-2.799997572E-3,1.140013337E-2,1.145966630E-2,1.640509004E-2
5.697879208E0,-7.535896730E-3,9.711423889E-3,1.464960072E-2,1.912360570E-2
5.707903208E0,-1.057430543E-2,7.803822868E-3,1.519214548E-2,2.008772936E-2
5.717928208E0,-1.077164523E-2,7.033104077E-3,1.684703305E-2,2.119706151E-2
5.727953208E0,-5.922351032E-3,7.464880124E-3,1.801881008E-2,2.038323315E-2
5.737978208E0,9.856228717E-4,1.696091332E-2,1.627523825E-2,2.352716330E-2
5.748002208E0,8.822129108E-3,2.618693560E-2,1.341700368E-2,3.071809802E-2
5.758027208E0,1.174015459E-2,2.818776853E-2,9.101350792E-3,3.186245613E-2
5.768052208E0,1.276383456E-2,2.217201144E-2,2.390550449E-3,2.569490796E-2
5.778076083E0,1.011532079E-2,1.396042015E-2,7.995781489E-4,1.725840001E-2
5.788101083E0,1.983339665E-3,1.608179137E-2,-2.326390473E-3,1.636978138E-2
5.798126083E0,-2.658550162E-3,1.454967447E-2,-8.220498450E-3,1.692151030E-2
5.808151083E0,-3.113915911E-3,5.313384347E-3,-1.119944826E-2,1.278108629E-2
5.818175083E0,2.339172876E-3,-1.688865246E-3,-1.747305691E-2,1.770965029E-2
5.828200083E0,7.362353615E-3,-3.956607543E-4,-1.874467917E-2,2.014258661E-2
5.838225083E0,1.178373396E-2,2.220628783E-3,-1.200714707E-2,1.696935942E-2
5.848249083E0,1.427186746E-2,2.157732844E-3,-1.049032900E-2,1.784345859E-2
5.858274083E0,1.512354705E-2,-9.941183962E-4,-6.936340593E-3,1.666801631E-2
5.868299083E0,1.695680805E-2,5.552634830E-4,-1.047872752E-2,1.994104779E-2
5.878324083E0,1.932116225E-2,6.630466320E-3,-1.955238357E-2,2.827659983E-2
5.888348083E0,1.426479220E-2,1.020919764E-3,-2.810024656E-2,3.153015114E-2
5.898373083E0,8.147245273E-3,-1.290767919E-2,-3.654592857E-2,3.960543754E-2
5.908398083E0,1.180915162E-3,-1.552751660E-2,-3.650977090E-2,3.969208616E-2
5.918422083E0,-4.711062647E-3,-8.499700576E-3,-2.512182854E-2,2.693594792E-2
5.928447083E0,-1.273009647E-2,3.066996578E-4,-1.275303680E-2,1.802191356E-2
5.938472083E0,-1.768038049E-2,-1.152446261E-3,-5.072746426E-3,1.842977870E-2
5.948497083E0,-1.644274779E-2,-9.730853140E-3,-4.041082226E-3,1.952905024E-2
5.958521083E0,-1.129752025E-2,-1.408059336E-2,-7.713315077E-3,1.963141112E-2
5.968546083E0,-5.292207934E-3,-7.594821975E-3,-1.276503410E-2,1.576816036E-2
5.978571083E0,-3.858095966E-3,2.022651955E-3,-1.622634381E-2,1.680090054E-2
5.988595083E0,-1.854105853E-3,2.406738466E-3,-1.601825282E-2,1.630381924E-2
5.998620083E0,-1.062732190E-4,-1.932882704E-3,-1.358412392E-2,1.372136117E-2
6.008645083E0,3.183514811E-3,-5.735059269E-3,-8.207312785E-3,1.050645775E-2
6.018670083E0,3.358218353E-3,-1.250374969E-2,-4.222158343E-3,1.361792965E-2
6.028694083E0,-1.688588178E-3,-1.283806656E-2,6.112433039E-4,1.296305910E-2
6.038719083E0,-1.013720036E-2,-2.015616745E-2,5.960632116E-4,2.256965238E-2
6.048744083E0,-2.116749436E-2,-2.681938000E-2,-2.077063546E-3,3.422946324E-2
6.058768083E0,-2.928107977E-2,-4.276478663E-2,-4.095473327E-3,5.199020590E-2
6.068793083E0,-3.341155499E-2,-4.626017809E-2,-1.359531889E-3,5.708050815E-2
6.078818083E0,-3.721614927E-2,-3.124501184E-2,3.494611941E-3,4.871862933E-2
6.088843083E0,-3.859777749E-2,-5.556320772E-3,5.726556759E-3,3.941388816E-2
6.098867083E0,-3.682757542E-2,1.025513280E-2,1.598372310E-2,4.143570277E-2
6.108892083E0,-3.688726574E-2,4.633524455E-3,2.374107763E-2,4.411098151E-2
6.118917083E0,-3.651841730E-2,1.713634469E-3,2.427131124E-2,4.388197687E-2
6.128941083E0,-3.727040440E-2,8.580910508E-4,2.076064795E-2,4.267111280E-2
6.138966083E0,-3.189427778E-2,-1.400154829E-2,1.256157272E-2,3.702811660E-2
6.148991083E0,-2.299260348E-2,-3.171353042E-2,5.285772961E-3,3.952653820E-2
6.159016083E0,-1.767267287E-2,-1.407408435E-2,1.380975358E-2,2.647852924E-2
6.169040083E0,-8.403463289E-3,1.328098960E-2,1.792733371E-2,2.384097679E-2
6.179065083E0,-5.753675941E-4,4.725851119E-3,1.689029858E-2,1.754841596E-2
6.189090083E0,6.414325908E-3,-1.167809777E-2,1.211108826E-2,1.800555479E-2
6.199115083E0,9.499065578E-3,-1.859352738E-2,1.490980387E-2,2.565645647E-2
6.209139083E0,1.395415235E-2,-1.515299082E-3,1.321926154E-2,1.928116633E-2
6.219164083E0,1.050269511E-2,2.469056286E-3,1.925718039E-2,2.207355522E-2
6.229189083E0,8.389689028E-3,1.203865511E-3,2.744851820E-2,2.872729235E-2
6.239213083E0,5.629323423E-3,1.548463479E-4,3.743137792E-2,3.785262623E-2
6.249238083E0,2.650021343E-3,1.928285230E-3,3.551917151E-2,3.567004964E-2
6.259263083E0,-3.027305473E-3,1.898457878E-3,2.954623476E-2,2.976153069E-2
6.269288083E0,-9.902065620E-3,-5.238361191E-4,2.225070447E-2,2.436019616E-2
6.279312083E0,-1.842737757E-2,-8.167374879E-3,1.799017936E-2,2.701704665E-2
6.289337083E0,-2.360910550E-2,-1.785780117E-2,2.109398134E-2,3.634896111E-2
6.299362083E0,-1.923806034E-2,-1.428090874E-2,2.245672047E-2,3.283826449E-2
6.309386083E0,-9.093787521E-3,-6.044325419E-3,2.163492329E-2,2.423428867E-2
6.319411083E0,4.895265214E-3,-3.254398005E-3,2.358568832E-2,2.430718868E-2
6.329436083E0,1.474591065E-2,-9.289332666E-3,2.122312598E-2,2.746187646E-2
6.339461083E0,2.053748630E-2,-2.092601359E-2,1.657990366E-2,3.368352110E-2
6.349485083E0,2.565018833E-2,-1.401253510E-2,1.643336937E-2,3.353116356E-2
6.359510083E0,3.190142661E-2,-1.668516314E-3,1.158987638E-2,3.398249845E-2
6.369535083E0,3.743845597E-2,2.845341805E-3,1.364574581E-2,3.994922195E-2
6.379559083E0,3.527357057E-2,-3.832800779E-3,1.494776644E-2,3.850130990E-2
6.389584083E0,2.447754145E-2,-1.079068705E-2,1.903888583E-2,3.283394792E-2
6.399609083E0,1.299159322E-2,-8.188512176E-3,1.639650017E-2,2.246504938E-2
6.409634083E0,7.120383903E-3,-5.544648506E-3,1.054782607E-2,1.388162918E-2
6.419658083E0,8.957698941E-3,-4.068458453E-3,9.465310723E-5,9.838784667E-3
6.429683083E0,1.399105880E-2,-2.642050385E-3,1.686844509E-3,1.433790784E-2
6.439708083E0,1.757673733E-2,5.289109424E-3,-1.099354587E-3,1.838817430E-2
6.449732083E0,2.032158710E-2,1.714094728E-2,-3.398424014E-3,2.680164662E-2
6.459757083E0,2.061240375E-2,2.119454555E-2,-3.548892681E-3,2.977708160E-2
6.469782083E0,1.708557457E-2,1.726785861E-2,-7.001253776E-3,2.528069132E-2
6.479807083E0,1.434891019E-2,1.828252338E-2,-5.326125305E-3,2.384343716E-2
6.489831083E0,1.073823124E-2,1.270301919E-2,-7.555661257E-3,1.826921793E-2
6.499856083E0,8.849516511E-3,1.070884429E-2,-1.211179793E-2,1.843065212E-2
6.509881083E0,9.141554125E-3,8.769828826E-3,-1.630747132E-2,2.064973439E-2
6.519905083E0,3.183529479E-3,6.401746534E-3,-1.414711587E-2,1.585112318E-2
6.529930083E0,3.761992557E-4,9.565165965E-4,-1.299414691E-2,1.303473451E-2
6.539955083E0,-4.682741594E-3,4.407973029E-3,-7.492322475E-3,9.873864042E-3
6.549980083E0,-8.307628334E-3,1.506669726E-2,1.640604343E-3,1.728333410E-2
6.560004083E0,-8.309491910E-3,1.511729695E-2,6.269178819E-3,1.835437076E-2
6.570029083E0,-8.406527340E-3,4.107536748E-3,8.120323531E-3,1.238875354E-2
6.580054083E0,-7.357775234E-3,-3.367464524E-4,4.784980789E-3,8.783296404E-3
6.590079083E0,1.414716011E-3,2.005978022E-3,-1.209361246E-3,2.736407104E-3
6.600103083E0,8.147187531E-3,4.274724983E-3,-6.398797035E-3,1.120689707E-2
6.610128083E0,1.493003033E-2,5.513009382E-4,-9.153136984E-3,1.752112026E-2
6.620153083E0,2.061561309E-2,-2.793629188E-3,-6.435381714E-3,2.177663897E-2
6.630177083E0,2.687105350E-2,6.089032628E-3,-3.134245053E-4,2.755409352E-2
6.640202083E0,3.195423260E-2,1.818324625E-2,3.661610186E-3,3.694740606E-2
6.650227083E0,3.462493047E-2,2.076305263E-2,-2.236586995E-3,4.043504032E-2
6.660251083E0,3.701964393E-2,9.521584958E-3,-1.229587942E-2,4.015349633E-2
6.670276083E0,3.098175675E-2,-7.966023404E-4,-2.166598663E-2,3.781426719E-2
6.680301083E0,2.288760990E-2,-3.648315091E-3,-2.461650409E-2,3.381013403E-2
6.690326083E0,1.236808486E-2,-7.323951460E-3,-2.114737034E-2,2.556992492E-2
6.700350083E0,1.345528290E-3,-2.450899454E-3,-2.221982554E-2,2.239504413E-2
6.710375083E0,-7.059099153E-3,-1.227337308E-2,-2.517939173E-2,2.888716558E-2
6.720400083E0,-1.536682993E-2,-2.261655778E-2,-2.769021876E-2,3.891524589E-2
6.730425083E0,-1.993523724E-2,-2.181638218E-2,-3.363807499E-2,4.477597911E-2
6.740449083E0,-2.165217698E-2,-1.101380121E-2,-3.753507510E-2,4.471020518E-2
6.750474083E0,-2.211943083E-2,4.117286764E-3,-3.846470267E-2,4.456180676E-2
6.760499083E0,-2.351785637E-2,1.172540523E-2,-3.104141168E-2,4.067116836E-2
6.770523083E0,-2.566780150E-2,1.393925026E-2,-2.389529347E-2,3.773756460E-2
6.780549042E0,-2.044853941E-2,1.926956698E-2,-3.027063608E-2,4.130097316E-2
6.790574042E0,-9.669127874E-3,2.346617728E-2,-3.952325881E-2,4.697064505E-2
6.800599042E0,4.602053668E-4,2.504676208E-2,-5.159989372E-2,5.735940299E-2
6.810623042E0,-6.475623813E-4,1.652502641E-2,-5.238070711E-2,5.492935748E-2
6.820648042E0,-9.234393016E-3,5.195938516E-3,-4.749460518E-2,4.866219593E-2
6.830673042E0,-2.163461223E-2,5.401941016E-3,-3.992510960E-2,4.573020653E-2
6.840697042E0,-3.331523761E-2,1.413577795E-2,-4.059676081E-2,5.438586456E-2
6.850722042E0,-3.419156000E-2,4.830377176E-3,-3.885693848E-2,5.198323756E-2
6.860747042E0,-3.509250656E-2,-6.133324001E-3,-2.739096619E-2,4.493736428E-2
6.870772042E0,-3.377209231E-2,1.952935709E-3,-2.011019923E-2,3.935464763E-2
6.880796042E0,-2.879730798E-2,7.905101404E-3,-1.248503663E-2,3.236744838E-2
6.890821042E0,-2.660042048E-2,1.079682354E-2,-2.036917489E-3,2.878025019E-2
6.900846042E0,-2.183868922E-2,4.957843572E-3,1.098954584E-3,2.242133495E-2
6.910870042E0,-1.594531164E-2,-2.522538649E-3,1.388565172E-3,1.620321813E-2
6.920895042E0,-8.526809514E-3,-8.889555465E-4,6.152161397E-3,1.055205252E-2
6.930920042E0,-5.739526358E-3,1.674707048E-3,1.454293355E-2,1.572398559E-2
6.940945042E0,-3.320577089E-3,8.522492833E-3,3.015544824E-2,3.151206396E-2
6.950969042E0,-7.464433089E-3,1.226952113E-2,4.458530992E-2,4.684131479E-2
6.960994042E0,-6.301430054E-3,3.445403185E-3,4.700638726E-2,4.755185872E-2
6.971019042E0,-1.321415650E-3,-2.227382967E-3,4.408355057E-2,4.415956075E-2
6.981044042E0,5.794550758E-3,2.695203992E-3,3.518379852E-2,3.575948296E-2
6.991068042E0,6.377470214E-3,4.039764870E-3,2.695765160E-2,2.799476391E-2
7.001093042E0,3.163567279E-3,1.952911727E-3,3.147810325E-2,3.169689269E-2
7.011118042E0,-9.358225390E-3,-7.718139328E-3,4.076958075E-2,4.253592331E-2
7.021142042E0,-2.142953686E-2,-5.049918778E-3,4.868609458E-2,5.343278521E-2
7.031167042E0,-3.097237647E-2,2.345845802E-3,5.064107850E-2,5.940799549E-2
7.041192042E0,-3.344698623E-2,1.172523201E-2,4.580637440E-2,5.791723309E-2
7.051217042E0,-3.555777296E-2,8.352958597E-3,3.313191980E-2,4.931380380E-2
7.061241042E0,-3.297477216E-2,4.387245513E-3,1.835350692E-2,3.799256162E-2
7.071266042E0,-2.856300026E-2,1.458730083E-3,2.821735572E-3,2.873908609E-2
7.081291042E0,-2.368728630E-2,4.355982877E-3,-3.645485267E-3,2.435881118E-2
7.091315042E0,-1.761145331E-2,4.366888199E-3,-7.811449468E-3,1.975479038E-2
7.101340042E0,-1.015114039E-2,-4.564555362E-3,-1.240753289E-2,1.666816395E-2
7.111365042E0,-1.923265401E-3,3.076527501E-3,-1.762955822E-2,1.799903593E-2
7.121390042E0,3.375892527E-3,1.739741117E-2,-1.869615354E-2,2.576068172E-2
7.131414042E0,5.312101915E-3,1.418550313E-2,-1.721312664E-2,2.292899157E-2
7.141439042E0,7.085500751E-3,-4.443060607E-4,-1.547408197E-2,1.702495056E-2
7.151464042E0,6.134482101E-3,-3.101197770E-3,-1.104827970E-2,1.301206297E-2
7.161488042E0,6.112111732E-3,-2.075614640E-3,-3.926187754E-3,7.555199285E-3
7.171513042E0,9.089147672E-3,5.659568589E-3,-1.073007472E-3,1.076079305E-2
7.181538042E0,1.239359751E-2,9.623417631E-3,6.576022133E-5,1.569126351E-2
7.191563042E0,1.214118488E-2,1.383512933E-2,5.053341389E-3,1.908809663E-2
7.201587042E0,6.779175717E-3,7.108516991E-3,1.043638866E-2,1.433200773E-2
7.211612042E0,-1.089657075E-3,-5.206631031E-4,1.209361665E-2,1.215376511E-2
7.221637042E0,-7.130505517E-3,7.218749262E-3,1.229095645E-2,1.593806953E-2
7.231662042E0,-5.054720212E-3,8.314729668E-3,2.137230523E-2,2.348319307E-2
7.241686042E0,-3.089041216E-3,-3.903447650E-4,2.969175391E-2,2.985456070E-2
7.251711042E0,-8.666010108E-4,2.944406588E-4,3.182234615E-2,3.183550545E-2
7.261736042E0,2.347301692E-3,7.750758901E-3,3.109237179E-2,3.212973191E-2
7.271760042E0,5.345580634E-3,7.445159834E-3,2.719741501E-2,2.870026168E-2
7.281785042E0,9.300908074E-3,-4.237861838E-3,2.638141997E-2,2.829214880E-2
7.291810042E0,1.157852076E-2,-9.561656043E-4,1.976380125E-2,2.292562399E-2
7.301835042E0,1.150581613E-2,6.723592058E-3,1.411630120E-2,1.941289403E-2
7.311859042E0,6.719235331E-3,9.352126159E-3,6.504014600E-3,1.322545247E-2
7.321884042E0,6.241197698E-3,9.400329553E-3,6.362721324E-4,1.130148604E-2
7.331909042E0,-3.572333837E-3,3.656356595E-3,-3.820702899E-3,6.381871453E-3
7.341933042E0,-1.524523459E-2,1.863250276E-3,-1.460384205E-2,2.119342072E-2
7.351958042E0,-1.905790716E-2,5.009110551E-3,-2.537064999E-2,3.212421042E-2
7.361983042E0,-1.248788927E-2,9.677898139E-3,-3.409489989E-2,3.757753703E-2
7.372008042E0,-2.196966438E-3,1.517156698E-2,-3.974075615E-2,4.259496221E-2
7.382032042E0,6.728085689E-3,2.314507216E-2,-4.436080903E-2,5.048606620E-2
7.392057042E0,9.357230738E-3,2.309263498E-2,-4.564928263E-2,5.200658191E-2
7.402082042E0,5.362222902E-3,2.500371821E-2,-3.995704278E-2,4.743948384E-2
7.412106042E0,-9.321275284E-4,3.639120981E-2,-3.012422472E-2,4.725100981E-2
7.422131042E0,-4.335114732E-3,3.813637793E-2,-2.449456789E-2,4.553197116E-2
7.432156042E0,-3.962908406E-3,2.413097396E-2,-2.005680092E-2,3.162726372E-2
7.442181042E0,1.179122832E-3,7.626566105E-3,-2.208160236E-2,2.339128052E-2
7.452205042E0,6.269910373E-3,-1.256110147E-3,-1.164347213E-2,1.328382595E-2
7.462230042E0,5.538606551E-3,-5.588540807E-3,3.215901554E-3,8.499998452E-3
7.472255042E0,-3.582297824E-3,4.844157025E-3,2.042112313E-2,2.129133591E-2
7.482280042E0,-1.295129862E-2,1.421795227E-2,3.490818664E-2,3.985558678E-2
7.492304042E0,-1.287641190E-2,1.078719180E-2,4.383351654E-2,4.694190732E-2
7.502329042E0,-9.154643863E-3,3.136196174E-3,4.800748825E-2,4.897307586E-2
7.512354042E0,-7.032253779E-3,-1.901083160E-3,4.590675607E-2,4.648114632E-2
7.522378042E0,-1.679034205E-3,-2.693640999E-4,4.238365963E-2,4.241775945E-2
7.532403042E0,5.890183151E-3,1.117972750E-2,4.332673550E-2,4.513187979E-2
7.542428042E0,1.878441125E-2,1.224525832E-2,4.502476752E-2,5.029940504E-2
7.552453042E0,2.709626593E-2,1.045275759E-2,4.505174980E-2,5.360156647E-2
7.562477042E0,3.082282655E-2,6.268665195E-3,3.648089617E-2,4.816843972E-2
7.572502042E0,2.858234942E-2,1.722324057E-3,2.944632247E-2,4.107314214E-2
7.582527042E0,1.754674315E-2,-9.803038090E-3,1.803361252E-2,2.700368367E-2
7.592551042E0,6.548114121E-3,-1.396070607E-2,1.172095351E-2,1.936904395E-2
7.602576042E0,3.363505704E-3,-9.354236536E-3,5.647615064E-3,1.143286787E-2
7.612601042E0,6.460684817E-3,4.160890356E-3,8.171690628E-3,1.121739652E-2
7.622626042E0,8.689749986E-3,1.402790286E-2,1.180850528E-2,2.029124467E-2
7.632650042E0,2.520553302E-3,1.870865561E-2,1.109302416E-2,2.189571120E-2
7.642675042E0,-1.056488790E-2,9.681871161E-3,6.322504021E-3,1.566299916E-2
7.652700042E0,-2.668659016E-2,-3.318106057E-3,5.628960207E-3,2.747488154E-2
7.662725042E0,-3.613388911E-2,-1.079679467E-2,-5.979226436E-3,3.818350254E-2
7.672749042E0,-3.218195215E-2,5.996978143E-4,-2.101387084E-2,3.843982894E-2
7.682774042E0,-2.250828594E-2,5.635469221E-3,-2.930855379E-2,3.738144960E-2
7.692799042E0,-1.839338243E-2,7.136043860E-4,-2.868482843E-2,3.408291552E-2
7.702823042E0,-2.118064649E-2,-9.419191629E-3,-3.021401539E-2,3.808185504E-2
7.712848042E0,-2.241366543E-2,-8.809101768E-3,-4.108311981E-2,4.762137551E-2
7.722873042E0,-1.700584963E-2,4.626938608E-4,-4.281790555E-2,4.607370229E-2
7.732898042E0,-9.306598455E-3,-2.525715623E-3,-3.798318654E-2,3.918819305E-2
7.742922042E0,-6.596290041E-5,-1.081853267E-2,-3.290054202E-2,3.463366376E-2
7.752947042E0,4.795812070E-3,-1.342829503E-2,-3.252415359E-2,3.551252578E-2
7.762972042E0,3.771826392E-3,-1.297103055E-2,-2.439458854E-2,2.788494680E-2
7.772996042E0,-5.808622111E-3,-1.884690858E-2,-1.916563325E-2,2.750031912E-2
7.783020167E0,-1.779470965E-2,-2.384406514E-2,-1.350774802E-2,3.267491991E-2
7.793045167E0,-2.484064363E-2,-2.095172554E-2,-6.788430270E-3,3.319811990E-2
7.803070167E0,-2.684653550E-2,-1.632208563E-2,5.498862360E-3,3.189646431E-2
7.813094167E0,-2.426148392E-2,-1.190431789E-2,1.616049372E-2,3.148799682E-2
7.823119167E0,-1.823208667E-2,-1.217649225E-2,1.843083836E-2,2.864213244E-2
7.833144167E0,-1.201183256E-2,-9.890832007E-3,2.055532858E-2,2.578050062E-2
7.843169167E0,-8.898331784E-3,-4.140002653E-3,2.263632230E-2,2.467231278E-2
7.853193167E0,-7.739042863E-3,-6.611700170E-3,3.150263056E-2,3.310623953E-2
7.863218167E0,-1.209863834E-2,-3.317902097E-3,3.746837750E-2,3.951284394E-2
7.873243167E0,-1.015715487E-2,5.089905113E-3,3.477422521E-2,3.658307898E-2
7.883267167E0,-6.588252261E-3,1.173049770E-2,3.098667786E-2,3.378141277E-2
7.893292167E0,-1.614922890E-3,3.266752698E-3,2.690700442E-2,2.715265246E-2
7.903317167E0,9.321244434E-4,-1.339450711E-3,2.844125032E-2,2.848802738E-2
7.913342167E0,-9.072621469E-4,1.579152187E-3,3.491152078E-2,3.495899211E-2
7.923366167E0,-4.441010766E-3,1.025759522E-2,4.162934422E-2,4.310386452E-2
7.933391167E0,-3.677450586E-3,1.249314006E-2,4.912273958E-2,5.081973766E-2
7.943416167E0,1.489081886E-3,1.069204416E-2,4.152553901E-2,4.290579871E-2
7.953440167E0,5.416420288E-3,9.559975937E-3,2.745946683E-2,2.957622470E-2
7.963465167E0,9.477475658E-3,8.213747293E-3,1.430318691E-2,1.902286375E-2
7.973490167E0,4.864410963E-3,5.051143933E-3,4.411096685E-3,8.284583454E-3
7.983515167E0,-5.224708468E-3,3.699057037E-3,-3.016992239E-3,7.076923322E-3
7.993539167E0,-1.371826138E-2,1.031318959E-2,-8.014288731E-3,1.894152578E-2
8.003564167E0,-1.599393226E-2,1.525548380E-2,-1.035840251E-2,2.440967344E-2
8.013589167E0,-9.169500321E-3,1.030973159E-2,-1.214334741E-2,1.838018465E-2
8.023614167E0,-2.446881961E-3,1.635590754E-2,-1.413299516E-2,2.175418339E-2
8.033638167E0,8.112909272E-3,2.580014057E-2,-1.646148413E-2,3.166144359E-2
8.043663167E0,1.316892076E-2,2.357187308E-2,-1.269843616E-2,2.983796165E-2
8.053688167E0,9.280802682E-3,7.128703408E-3,-1.259402186E-2,1.719189045E-2
8.063712167E0,3.567523323E-3,-2.628319664E-3,-1.230560243E-2,1.307911075E-2
8.073737167E0,-1.077012275E-4,-5.219742656E-3,-1.148690190E-2,1.261769504E-2
8.083762167E0,2.469706116E-3,-4.849030636E-3,-3.109662328E-3,6.267578975E-3
8.093787167E0,1.190544013E-2,8.384481771E-4,2.504150849E-3,1.219480510E-2
8.103811167E0,2.102436870E-2,1.001809817E-2,5.563856103E-3,2.394457903E-2
8.113836167E0,2.508982085E-2,1.312087476E-2,9.117764421E-3,2.974542137E-2
8.123861167E0,2.553110570E-2,9.567419067E-3,8.740128018E-3,2.863149845E-2
8.133885167E0,1.933869906E-2,6.595363840E-3,2.106502187E-3,2.054072679E-2
8.143910167E0,8.811490610E-3,3.848723136E-4,-1.947894227E-3,9.032429650E-3
8.153935167E0,6.122787483E-3,1.840789570E-3,-6.296079606E-3,8.973162832E-3
8.163960167E0,4.129944369E-3,5.552437156E-3,-3.585247789E-3,7.793587144E-3
8.173984167E0,7.171825506E-3,2.631587721E-2,4.140266683E-3,2.758808226E-2
8.184009167E0,8.919126354E-3,3.951929510E-2,1.416147500E-2,4.291704643E-2
8.194034167E0,7.547216024E-3,3.184743971E-2,2.170517668E-2,3.927256778E-2
8.204059167E0,6.799411494E-5,1.614730433E-2,2.840062790E-2,3.267010446E-2
8.214083167E0,-6.448606029E-3,1.400162745E-2,2.967721969E-2,3.344200143E-2
8.224108167E0,-1.089288946E-2,2.585855126E-2,2.726892382E-2,3.912689510E-2
8.234133167E0,-1.151454821E-2,2.681234851E-2,2.353909612E-2,3.749101091E-2
8.244157167E0,-7.780264132E-3,1.957228035E-2,1.859360561E-2,2.809499666E-2
8.254182167E0,-4.966764711E-3,1.172333770E-2,1.666459814E-2,2.097174836E-2
8.264207167E0,-2.126237378E-3,5.261443555E-3,2.050088160E-2,2.127180810E-2
8.274232167E0,-5.597992335E-3,1.056001172E-3,2.167255618E-2,2.240875605E-2
8.284256167E0,-1.176134590E-2,6.037443876E-3,2.555011772E-2,2.876783797E-2
8.294281167E0,-1.757487096E-2,8.818614297E-3,2.884884365E-2,3.491274591E-2
8.304306167E0,-1.408746187E-2,-2.356542274E-3,2.508286946E-2,2.886451478E-2
8.314330167E0,-4.987125751E-3,-1.084503345E-2,1.677398197E-2,2.058768188E-2
8.324355167E0,9.234154597E-3,-8.786143735E-3,7.901394740E-3,1.499659867E-2
8.334380167E0,2.194761485E-2,5.753284320E-3,5.608367734E-3,2.337203172E-2
8.344405167E0,3.007505089E-2,1.726133563E-2,4.136438482E-3,3.492237846E-2
8.354429167E0,3.093616664E-2,8.768871427E-3,3.423745744E-3,3.233669043E-2
8.364454167E0,1.950561255E-2,-6.269732025E-3,1.780042425E-3,2.056567557E-2
8.374479167E0,6.408070214E-3,-3.759260522E-3,-4.179548007E-3,8.524319626E-3
8.384504167E0,-3.797945101E-4,1.201942330E-3,-1.064836606E-2,1.072271463E-2
8.394528167E0,1.702284208E-3,8.061284199E-3,-1.429881155E-2,1.650266907E-2
8.404553167E0,6.728733890E-3,8.391781710E-3,-1.920834929E-2,2.201496178E-2
8.414578167E0,9.697282687E-3,1.213870104E-2,-2.294216864E-2,2.770791324E-2
8.424602167E0,2.957620658E-3,1.083987672E-2,-2.579574473E-2,2.813664681E-2
8.434627167E0,-1.437050290E-2,1.141991373E-2,-2.655021846E-2,3.227754457E-2
8.444652167E0,-3.116706014E-2,6.852858700E-3,-2.156344987E-2,3.851401927E-2
8.454677167E0,-4.502650723E-2,2.158638090E-4,-2.149438672E-2,4.989430439E-2
8.464701167E0,-4.734825343E-2,-5.849219393E-3,-2.591576800E-2,5.429270210E-2
8.474726167E0,-3.633239120E-2,-3.554847091E-3,-3.188407794E-2,4.846931002E-2
8.484751167E0,-1.436237805E-2,-1.834445167E-3,-3.512993827E-2,3.799678480E-2
8.494776167E0,4.417266231E-3,-1.922077266E-3,-3.696963191E-2,3.728217142E-2
8.504800167E0,1.303285826E-2,-1.249760389E-4,-3.144863248E-2,3.404243673E-2
8.514825167E0,1.467000134E-2,1.081687980E-3,-2.426766790E-2,2.837778522E-2
8.524850167E0,8.326351643E-3,-5.908577237E-3,-2.156562358E-2,2.386033397E-2
8.534874167E0,1.613620436E-3,-1.255707163E-2,-2.813105285E-2,3.084866210E-2
8.544899167E0,1.695379382E-3,-1.788073033E-2,-3.526512906E-2,3.957554998E-2
8.554924167E0,5.374744534E-3,-1.140210405E-2,-4.110103101E-2,4.299058740E-2
8.564949167E0,8.219799027E-3,6.063705310E-3,-3.622078896E-2,3.763348470E-2
8.574973167E0,6.293463055E-3,2.070360631E-2,-2.720781602E-2,3.476366269E-2
8.584998167E0,-1.768990420E-3,1.956830174E-2,-1.085813716E-2,2.244876172E-2
8.595023167E0,-1.386865973E-2,1.518146880E-2,2.241072711E-3,2.068427240E-2
8.605047167E0,-2.225282416E-2,1.648854837E-2,1.184150204E-2,3.012111520E-2
8.615072167E0,-2.059175819E-2,2.242172882E-2,1.839475520E-2,3.556854576E-2
8.625097167E0,-1.537249424E-2,2.573443577E-2,2.431815863E-2,3.859983941E-2
8.635122167E0,-1.218330674E-2,2.141364664E-2,2.196766436E-2,3.300841564E-2
8.645146167E0,-1.084373705E-2,9.506920353E-3,1.587515138E-2,2.144734481E-2
8.655171167E0,-1.026792265E-2,-2.695476171E-3,9.730872698E-3,1.440089271E-2
8.665196167E0,-9.806929156E-3,-1.422483381E-2,3.112385049E-3,1.755587358E-2
8.675221167E0,-6.898030639E-3,-1.657882892E-2,-6.552988663E-3,1.911496940E-2
8.685245167E0,-6.036232226E-3,-1.384269632E-2,-1.419439632E-2,2.072527993E-2
8.695270167E0,-8.624505252E-3,-1.298789866E-2,-1.205160469E-2,1.970555196E-2
8.705295167E0,-1.080510207E-2,-1.120091788E-2,-7.416905370E-3,1.724010665E-2
8.715319167E0,-1.175252348E-2,-6.201027427E-3,-7.204570808E-3,1.511556780E-2
8.725344167E0,-6.626737304E-3,-2.678197343E-3,-1.273728721E-2,1.460564527E-2
8.735369167E0,-2.700700425E-3,-2.281530993E-3,-1.928989217E-2,1.961119849E-2
8.745394167E0,-5.393422209E-3,-9.873936884E-3,-2.050455846E-2,2.338847046E-2
8.755418167E0,-5.141700618E-3,-1.840731315E-2,-1.901450753E-2,2.695955785E-2
8.765443167E0,-1.353087951E-3,-1.950320415E-2,-1.896763593E-2,2.723925535E-2
8.775468167E0,7.427770644E-3,-9.302855469E-3,-1.531747542E-2,1.939948324E-2
8.785497042E0,1.709717698E-2,9.825453162E-8,-1.355419680E-2,2.181810514E-2
8.795522042E0,2.633041702E-2,-4.496482201E-3,-1.261600945E-2,2.954103768E-2
8.805547042E0,2.901887894E-2,-1.573262550E-2,-1.308232918E-2,3.550715670E-2
8.815572042E0,2.798557281E-2,-2.232634462E-2,-1.174062863E-2,3.767625659E-2
8.825596042E0,2.604945377E-2,-1.674782112E-2,-1.128655858E-2,3.296134036E-2
8.835621042E0,2.682605945E-2,-5.627835635E-3,-8.917089552E-3,2.882402618E-2
8.845646042E0,2.766096033E-2,1.857777708E-3,-1.028009504E-2,2.956789506E-2
8.855671042E0,2.440975420E-2,5.532303825E-3,-1.371179521E-2,2.853867225E-2
8.865695042E0,1.736382768E-2,7.320616394E-3,-1.844423264E-2,2.636823190E-2
8.875720042E0,6.080962718E-3,6.383626722E-3,-9.692255408E-3,1.310223693E-2
8.885745042E0,-3.572292044E-4,6.569249090E-3,3.337478265E-4,6.587414813E-3
8.895769042E0,9.129039245E-4,6.151959766E-3,9.562096559E-3,1.140673893E-2
8.905794042E0,4.377410281E-3,2.878934843E-3,1.431104541E-2,1.523994775E-2
8.915819042E0,7.843910716E-3,-3.578892210E-3,1.062291302E-2,1.368143581E-2
8.925844042E0,6.748553365E-3,-1.583955251E-2,1.052844804E-3,1.724943125E-2
8.935868042E0,2.240203787E-3,-2.263664827E-2,-7.629357278E-3,2.399257073E-2
8.945893042E0,-1.665055519E-3,-1.835668273E-2,-1.767693087E-2,2.553848265E-2
8.955918042E0,-1.276701340E-3,-4.097687081E-3,-2.040405199E-2,2.085057177E-2
8.965942042E0,3.369182814E-3,-6.829814520E-4,-2.082163468E-2,2.110351457E-2
8.975967042E0,1.077228971E-2,-4.034249578E-4,-1.818402857E-2,2.113915495E-2
8.985992042E0,1.739663631E-2,-2.281486057E-3,-1.944530010E-2,2.619098756E-2
8.996017042E0,1.473387238E-2,4.594602156E-3,-2.022100054E-2,2.543788959E-2
9.006041042E0,1.247844100E-2,9.211724624E-3,-2.221011557E-2,2.708978763E-2
9.016066042E0,3.934909590E-3,9.418416768E-3,-2.021580376E-2,2.264660702E-2
9.026091042E0,-3.986929543E-3,7.031958085E-3,-1.338559482E-2,1.563707743E-2
9.036116042E0,-1.242475864E-2,5.411497317E-3,-4.923585802E-3,1.441875957E-2
9.046140042E0,-1.792072505E-2,4.690845963E-3,1.190765761E-3,1.856271384E-2
9.056165042E0,-2.058367617E-2,4.463100806E-3,2.966710366E-3,2.126989337E-2
9.066190042E0,-1.104503311E-2,6.778719369E-3,2.589873038E-3,1.321556791E-2
9.076214042E0,3.853488714E-3,9.115111083E-3,8.865079843E-3,1.328624348E-2
9.086239042E0,1.341157407E-2,1.320119854E-2,1.707587019E-2,2.541116496E-2
9.096264042E0,2.078071609E-2,8.871033788E-3,2.107788995E-2,3.090001370E-2
9.106289042E0,2.108511515E-2,2.819266170E-3,2.157803252E-2,3.030085527E-2
9.116313042E0,2.101170830E-2,2.157989191E-3,1.729808375E-2,2.730151103E-2
9.126338042E0,1.875414699E-2,-3.246629611E-3,1.023138594E-2,2.160879200E-2
9.136363042E0,1.342006307E-2,-9.882370010E-3,1.000005566E-2,1.943606038E-2
9.146388042E0,1.040429901E-2,-1.298761554E-2,5.789066199E-3,1.761933264E-2
9.156412042E0,7.152917795E-3,-5.403703079E-3,7.519284729E-3,1.170059327E-2
9.166437042E0,3.034339054E-3,2.906676382E-4,1.352977194E-2,1.386890154E-2
9.176462042E0,1.574588940E-3,-1.815385185E-4,1.575967483E-2,1.583918045E-2
9.186486042E0,3.622825956E-3,-5.332358181E-3,9.371817112E-3,1.137496671E-2
9.196511042E0,8.974084631E-3,-1.026812010E-3,8.602144197E-3,1.247338858E-2
9.206536042E0,1.298693568E-2,6.177837495E-3,1.271406561E-2,1.919566719E-2
9.216561042E0,1.902569272E-2,9.400736541E-3,1.997241192E-2,2.914186110E-2
9.226585042E0,2.131175064E-2,4.491731524E-3,2.663164586E-2,3.440364702E-2
9.236610042E0,2.095423639E-2,5.594456568E-3,3.065411747E-2,3.755067089E-2
9.246635042E0,1.624736562E-2,2.197061898E-3,3.157716617E-2,3.557978912E-2
9.256659042E0,1.142649818E-2,-2.644547960E-3,3.319972008E-2,3.521050849E-2
9.266684042E0,6.289260928E-3,-8.720017038E-3,3.683013842E-2,3.836733762E-2
9.276709042E0,-2.644130494E-3,-1.065563178E-3,4.110487550E-2,4.120361199E-2
9.286734042E0,-2.752787434E-3,5.204050802E-3,4.182552546E-2,4.223783332E-2
9.296758042E0,1.978840446E-4,-1.241043210E-4,3.545591235E-2,3.545668175E-2
9.306783042E0,2.682613209E-3,3.427220974E-3,2.066498250E-2,2.111832756E-2
9.316808042E0,6.418703590E-3,8.213675581E-3,8.523513563E-3,1.346530749E-2
9.326833042E0,7.622186095E-3,5.303905345E-3,-2.749114996E-3,9.684356769E-3
9.336857042E0,6.267857738E-3,-4.697032273E-3,-7.809517905E-3,1.106059323E-2
9.346882042E0,3.493376775E-3,-1.353819389E-2,-2.832069760E-3,1.426558776E-2
9.356907042E0,2.689174144E-3,-9.492558427E-3,9.884487838E-3,1.396579475E-2
9.366931042E0,1.348538790E-3,1.016982552E-2,3.205183893E-2,3.365359248E-2
9.376956042E0,1.182201039E-2,1.638702117E-2,4.652038217E-2,5.071923057E-2
9.386981042E0,2.422275394E-2,6.698174402E-3,4.789217561E-2,5.408574520E-2
9.397006042E0,3.472515568E-2,-1.275189780E-2,3.567981720E-2,5.139549290E-2
9.407030042E0,3.985946253E-2,-2.642509900E-2,2.191686630E-2,5.260619392E-2
9.417055042E0,3.944110498E-2,-3.873093054E-2,1.378085930E-2,5.697014854E-2
9.427080042E0,3.351503611E-2,-3.983454406E-2,1.281626243E-2,5.361254637E-2
9.437105042E0,2.563836053E-2,-3.065113537E-2,1.475011930E-2,4.259558251E-2
9.447129042E0,2.317759953E-2,-1.826983318E-2,1.867002621E-2,3.492216779E-2
9.457154042E0,2.627044544E-2,-4.377895966E-3,1.851739734E-2,3.243757514E-2
9.467179042E0,2.989101410E-2,5.663553253E-3,1.252155565E-2,3.289890447E-2
9.477203042E0,3.448743001E-2,1.022651978E-2,7.047818974E-3,3.665564469E-2
9.487228042E0,3.313188255E-2,1.195065025E-2,1.016052160E-2,3.665754877E-2
9.497253042E0,2.127147652E-2,8.643554524E-3,1.840182766E-2,2.942471766E-2
9.507278042E0,1.286051702E-3,6.767357700E-3,2.318806201E-2,2.418961097E-2
9.517302042E0,-1.588143781E-2,8.112581447E-3,2.235050127E-2,2.859333754E-2
9.527327042E0,-2.077419683E-2,1.089372113E-2,1.664334908E-2,2.876180597E-2
9.537352042E0,-1.377765741E-2,1.839975081E-2,9.600117803E-3,2.491057879E-2
9.547376042E0,1.641512150E-3,2.092442848E-2,-1.107920427E-3,2.101793893E-2
9.557401042E0,1.476264000E-2,1.546707842E-2,-1.126255374E-2,2.416632309E-2
9.567426042E0,2.731571719E-2,6.554010324E-3,-2.344545163E-2,3.658951570E-2
9.577451042E0,2.790782228E-2,-9.995030705E-4,-3.399282694E-2,4.399270206E-2
9.587475042E0,1.777076721E-2,-1.105293632E-2,-3.615983948E-2,4.177920009E-2
9.597500042E0,5.570239853E-3,-1.945246942E-2,-2.927531302E-2,3.558749908E-2
9.607525042E0,-6.929040421E-3,-2.754741535E-2,-2.221127972E-2,3.605846142E-2
9.617550042E0,-6.426741835E-3,-2.573064715E-2,-2.247514389E-2,3.476350538E-2
9.627574042E0,2.769671846E-4,-2.951553278E-2,-2.810373530E-2,4.075614461E-2
9.637599042E0,6.211301312E-3,-3.094167262E-2,-3.561613336E-2,4.758651410E-2
9.647624042E0,1.256826706E-2,-3.704297170E-2,-3.875120729E-2,5.506177582E-2
9.657648042E0,9.297696874E-3,-2.936770022E-2,-3.853777051E-2,4.933628218E-2
9.667673042E0,-3.300652141E-3,-1.484548114E-2,-3.415127844E-2,3.738438757E-2
9.677698042E0,-1.941450499E-2,-6.488820538E-3,-2.300309949E-2,3.079237539E-2
9.687723042E0,-3.280035406E-2,-5.953791551E-3,-7.922682911E-3,3.426484737E-2
9.697747042E0,-4.285896197E-2,-1.054809988E-2,1.708403230E-3,4.417093698E-2
9.707772042E0,-4.213484749E-2,-1.292870007E-2,3.789396957E-3,4.423636726E-2
9.717797042E0,-3.208736330E-2,-3.308695741E-3,2.201973461E-3,3.233256931E-2
9.727821042E0,-1.772733405E-2,5.979877897E-3,3.094398882E-3,1.896292743E-2
9.737846042E0,-7.945074700E-3,-6.817309186E-3,9.826114401E-3,1.435800964E-2
9.747871042E0,-6.401773542E-3,-1.735570468E-2,1.711039245E-2,2.519858566E-2
9.757896042E0,-7.440841757E-3,-1.214045007E-2,1.838819683E-2,2.325687934E-2
9.767920042E0,-1.169257797E-2,-1.138650905E-2,2.027824149E-2,2.603029093E-2
9.777940167E0,-1.415394247E-2,-2.783501707E-2,1.722097024E-2,3.566067973E-2
9.787965167E0,-7.028122898E-3,-3.652677685E-2,5.908128340E-3,3.766305775E-2
9.797990167E0,1.448543277E-3,-2.252054960E-2,-3.922484815E-3,2.290544300E-2
9.808014167E0,8.736018091E-3,-1.346926391E-2,-1.016440243E-2,1.900142519E-2
9.818039167E0,6.179363001E-3,-1.450533699E-2,-1.626299135E-2,2.265114161E-2
9.828064167E0,5.481090629E-4,-1.511813048E-2,-1.982763223E-2,2.493979336E-2
9.838088167E0,-9.214811958E-3,-7.913688198E-3,-1.843922772E-2,2.208040622E-2
9.848113167E0,-1.594621874E-2,9.588993853E-4,-1.145775057E-2,1.965913092E-2
9.858138167E0,-1.686435752E-2,5.007526837E-3,-6.371410564E-3,1.871033811E-2
9.868163167E0,-1.437456999E-2,6.774931680E-4,-1.082767826E-2,1.800904983E-2
9.878187167E0,-9.084336460E-3,-7.501267828E-3,-1.735154167E-2,2.097308242E-2
9.888212167E0,-1.140368357E-2,-1.380097587E-2,-3.186923265E-2,3.655350768E-2
9.898237167E0,-1.241417043E-2,-1.239776798E-2,-4.870581254E-2,5.176941620E-2
9.908262167E0,-1.149777696E-2,-1.281733857E-3,-5.748332664E-2,5.863594937E-2
9.918286167E0,-8.597133681E-3,1.068462897E-2,-5.554247648E-2,5.721047716E-2
9.928311167E0,-5.884750863E-4,1.104255766E-2,-5.197171122E-2,5.313514044E-2
9.938336167E0,3.744565416E-3,5.940622650E-3,-4.742589220E-2,4.794296631E-2
9.948360167E0,3.852689639E-3,-6.422303617E-3,-4.140208662E-2,4.207400596E-2
9.958385167E0,5.617828574E-4,-1.425380260E-2,-4.093779624E-2,4.335192786E-2
9.968410167E0,4.668643698E-3,-1.173312124E-2,-3.960967809E-2,4.157389766E-2
9.978435167E0,1.194940694E-2,-1.433468610E-2,-3.603226691E-2,4.057826772E-2
9.988459167E0,2.180709876E-2,-1.577519067E-2,-3.324020654E-2,4.277052171E-2
9.998484167E0,2.759209462E-2,-1.151691377E-2,-2.498807199E-2,3.896622550E-2
1.000850917E1,2.482134290E-2,-8.070516400E-3,-1.446299255E-2,2.983974618E-2
1.001853417E1,1.909833774E-2,-8.721320890E-3,-7.095010020E-3,2.216183904E-2
1.002855817E1,1.144973934E-2,-1.787566952E-2,-3.463257104E-3,2.150884101E-2
1.003858317E1,4.243894480E-3,-2.903758548E-2,-8.616959676E-4,2.935872155E-2
1.004860817E1,-4.078483675E-3,-2.053384483E-2,-1.775160199E-3,2.101009296E-2
1.005863217E1,-8.236249909E-3,-2.282610396E-3,3.233545925E-3,9.137939704E-3
1.006865717E1,-7.401881739E-3,8.144197986E-3,1.274502464E-2,1.683898652E-2
1.007868217E1,-7.259876467E-3,1.156986691E-2,2.618372068E-2,2.953226803E-2
1.008870717E1,-9.543537162E-3,5.748196505E-3,3.395056352E-2,3.573180135E-2
1.009873117E1,-1.107192505E-2,-2.745420206E-4,3.868060559E-2,4.023496174E-2
1.010875617E1,-1.384773757E-2,-5.128419492E-3,3.767472878E-2,4.046536434E-2
1.011878117E1,-1.245706063E-2,-1.054806402E-3,2.830966562E-2,3.094718313E-2
1.012880517E1,-9.404870216E-4,3.491209354E-3,2.021978237E-2,2.054051259E-2
1.013883017E1,1.240703557E-2,4.984934814E-3,1.322584320E-2,1.880710065E-2
1.014885517E1,2.212144807E-2,-2.777647227E-3,9.381837212E-3,2.418868864E-2
1.015888017E1,2.593646571E-2,-1.100367773E-2,1.291015930E-2,3.099118246E-2
1.016890417E1,2.400807105E-2,-1.661202870E-2,1.417675987E-2,3.245500722E-2
1.017892917E1,2.438071743E-2,-1.632810757E-2,1.175218169E-2,3.160917989E-2
1.018895417E1,2.403796837E-2,-1.175732445E-2,1.142301504E-2,2.909542703E-2
1.019897917E1,2.685645223E-2,8.453312330E-4,1.354833506E-2,3.009220819E-2
1.020900317E1,2.882479317E-2,9.660927579E-3,1.399254985E-2,3.346630656E-2
1.021902817E1,2.882760577E-2,8.660553955E-3,1.142982114E-2,3.219746668E-2
1.022905317E1,2.297184803E-2,5.658638664E-3,7.225221954E-3,2.473721540E-2
1.023907717E1,9.528424591E-3,3.552953014E-3,5.335963331E-3,1.148420023E-2
1.024910217E1,-5.233210977E-3,2.439751755E-3,8.295534179E-3,1.010716444E-2
1.025912717E1,-2.161232010E-2,-9.559718892E-4,1.133534685E-2,2.442327477E-2
1.026915217E1,-3.084070608E-2,-4.780537449E-3,1.709922589E-2,3.558632063E-2
1.027917617E1,-2.761298791E-2,3.294079565E-3,2.127659880E-2,3.501459292E-2
1.028920117E1,-1.785143837E-2,8.493902162E-3,2.593020536E-2,3.260668300E-2
1.029922617E1,-1.010661200E-2,1.253392827E-2,2.382638305E-2,2.875655566E-2
1.030925017E1,-8.129482158E-3,1.801311597E-2,1.914241537E-2,2.751350384E-2
1.031927517E1,-1.641742140E-2,1.751271077E-2,8.538414724E-3,2.547805506E-2
1.032930017E1,-2.530146204E-2,1.043402869E-2,-2.533145249E-3,2.748544635E-2
1.033932517E1,-3.480887786E-2,9.384648874E-3,-8.361614309E-3,3.700873148E-2
1.034934917E1,-4.185400531E-2,2.049402520E-2,-8.273996413E-3,4.733098188E-2
1.035937417E1,-3.715727478E-2,3.101953305E-2,-3.439776832E-3,4.852531880E-2
1.036939917E1,-2.232053690E-2,3.712509573E-2,1.112097874E-3,4.333261891E-2
1.037942417E1,-7.874234580E-3,3.770914674E-2,3.073670436E-3,3.864493198E-2
1.038944817E1,-3.001715522E-3,2.966187149E-2,2.443300094E-3,2.991331864E-2
1.039947317E1,-1.719757915E-2,6.419490092E-3,-4.438636824E-4,1.836201504E-2
1.040949817E1,-4.056894779E-2,2.447066084E-2,-3.117943881E-3,4.748025211E-2
1.041952217E1,-4.840006679E-2,-3.217183053E-2,7.260375656E-3,5.856881594E-2
1.042954717E1,-4.534116015E-2,-4.256534949E-2,1.495371480E-2,6.396282801E-2
1.043957217E1,-3.191396222E-2,-4.143415764E-2,2.190942876E-2,5.670373420E-2
1.044959717E1,-1.361884177E-2,-2.276619524E-2,4.092679173E-2,4.877268475E-2
1.045962117E1,4.379196558E-3,-4.149029497E-3,5.526852980E-2,5.559678223E-2
1.046964617E1,1.434554439E-2,-8.107552305E-3,5.383415148E-2,5.629958182E-2
1.047967117E1,1.585853100E-2,-1.593079232E-2,4.839385301E-2,5.335961168E-2
1.048969617E1,3.401595168E-3,-2.016654983E-2,4.409870505E-2,4.861024963E-2
1.049972017E1,-3.223615000E-3,-1.503800042E-2,3.287352622E-2,3.629327591E-2
1.050974517E1,-2.698705997E-3,-1.338524185E-2,1.874385774E-2,2.319008229E-2
1.051977017E1,1.023939811E-2,-1.333694626E-2,7.598938420E-3,1.845164692E-2
1.052979417E1,2.191549540E-2,-1.763209142E-2,2.298980951E-3,2.822170972E-2
1.053981917E1,2.539505810E-2,-1.566369273E-2,8.231364191E-3,3.095182712E-2
1.054984417E1,1.962159015E-2,-6.683781743E-3,1.592470333E-2,2.613954695E-2
1.055986917E1,6.723160855E-3,4.897543695E-4,2.382189408E-2,2.475728961E-2
1.056989317E1,-7.519423962E-3,8.660590975E-4,2.886005864E-2,2.983613211E-2
1.057991817E1,-1.803049818E-2,4.047235474E-3,2.545427904E-2,3.145471826E-2
1.058994317E1,-1.484163012E-2,2.699143440E-2,2.600395679E-2,4.031150313E-2
1.059996717E1,8.245787583E-3,4.216288403E-2,3.426416591E-2,5.495211432E-2
1.060999217E1,2.398720011E-2,1.451234892E-2,3.841656446E-2,4.755866341E-2
1.062001717E1,1.918335259E-2,1.125296485E-2,2.281560376E-2,3.186192099E-2
1.063004217E1,1.206215238E-3,1.924963854E-2,1.316910051E-2,2.335441602E-2
1.064006617E1,-1.900311746E-2,1.658983715E-2,1.200312562E-2,2.793593017E-2
1.065009117E1,-3.461509943E-2,1.276661642E-3,1.094691455E-2,3.632726128E-2
1.066011617E1,-4.310370982E-2,-8.854451589E-3,9.039182216E-3,4.492257704E-2
1.067014017E1,-3.772226349E-2,-9.332222864E-3,1.138808951E-2,4.049380358E-2
1.068016517E1,-2.298281714E-2,-7.778936997E-4,1.124526933E-2,2.559826331E-2
1.069019017E1,2.563290996E-3,7.894424722E-3,5.624401849E-3,1.002628040E-2
1.070021517E1,3.040271252E-2,1.335460972E-2,-2.627810463E-3,3.331029747E-2
1.071023917E1,5.349764228E-2,1.643109322E-2,-1.015257277E-2,5.687752884E-2
1.072026417E1,6.123697013E-2,1.115003414E-2,-1.222485304E-2,6.343293154E-2
1.073028917E1,5.442966521E-2,-2.137541305E-3,-1.505206432E-2,5.651302662E-2
1.074031417E1,3.706851229E-2,-5.970482714E-3,-1.565644145E-2,4.067979137E-2
1.075033817E1,1.788229868E-2,-7.636556402E-3,-1.873771846E-2,2.700362370E-2
1.076036317E1,8.459140547E-3,-1.918469556E-3,-2.474156767E-2,2.621798534E-2
1.077038817E1,9.041573852E-3,6.320285611E-3,-2.974032052E-2,3.172038355E-2
1.078041579E1,1.390748937E-2,9.881920181E-3,-3.313317522E-2,3.726765229E-2
1.079044079E1,1.491442975E-2,1.342951693E-2,-3.593774885E-2,4.116204480E-2
1.080046579E1,1.310351864E-2,1.617544331E-2,-3.945402056E-2,4.460904510E-2
1.081049079E1,3.221326973E-3,2.604538575E-2,-3.325151652E-2,4.236038736E-2
1.082051479E1,-7.458664943E-3,3.192138672E-2,-2.945261076E-2,4.406884266E-2
1.083053979E1,-1.903462783E-2,3.039086796E-2,-2.458222210E-2,4.347651729E-2
1.084056479E1,-1.940124668E-2,2.369407006E-2,-2.488873526E-2,3.946221575E-2
1.085058979E1,-7.523282431E-3,2.536839992E-2,-2.194913849E-2,3.437906592E-2
1.086061379E1,1.070087776E-2,3.194551915E-2,-1.415350102E-2,3.654239414E-2
1.087063879E1,2.822980471E-2,3.439349681E-2,-5.587443709E-3,4.484477700E-2
1.088066379E1,2.995170839E-2,2.245216258E-2,2.323191613E-3,3.750468850E-2
1.089068779E1,2.007191256E-2,8.400259539E-3,4.432947841E-3,2.220578890E-2
1.090071279E1,1.051901840E-2,-9.222282097E-5,-1.444568159E-3,1.061814627E-2
1.091073779E1,5.216131918E-3,3.713434329E-3,-8.251607418E-3,1.044445555E-2
1.092076279E1,7.552836323E-4,1.744369511E-3,-8.060405962E-3,8.281510891E-3
1.093078679E1,-1.506006345E-3,-3.579289420E-3,-1.803575316E-3,4.281617893E-3
1.094081179E1,2.791608917E-3,1.863972982E-3,4.204745404E-3,5.380275043E-3
1.095083679E1,6.219097413E-3,3.062291816E-2,1.326934621E-2,3.394872366E-2
1.096086079E1,7.920949720E-3,4.802547395E-2,2.683460340E-2,5.558132359E-2
1.097088579E1,1.838023541E-3,3.211015463E-2,3.219261765E-2,4.550609841E-2
1.098091079E1,-7.132316940E-3,9.820049629E-3,1.972651482E-2,2.316114648E-2
1.099093579E1,-1.950855926E-2,-1.158299623E-3,5.324406549E-3,2.025524247E-2
1.100095979E1,-2.629659325E-2,-7.233516313E-3,8.575050160E-4,2.728680798E-2
1.101098479E1,-2.829209901E-2,-1.207381207E-2,5.608051550E-3,3.126771573E-2
1.102100979E1,-2.323496528E-2,-6.028390955E-3,1.224237029E-2,2.694588539E-2
1.103103479E1,-8.779326454E-3,1.346781105E-2,1.354918350E-2,2.102472071E-2
1.104105879E1,3.625275102E-3,2.127387561E-2,1.744227298E-2,2.774803217E-2
1.105108379E1,5.501738284E-3,1.647006534E-2,2.125352249E-2,2.744529822E-2
1.106110879E1,-2.332644770E-3,5.444952287E-3,1.826717705E-2,1.920360628E-2
1.107113279E1,-8.484547026E-3,8.838884532E-3,1.401623897E-2,1.861634693E-2
1.108115779E1,-1.032145228E-2,9.408857673E-3,1.703965291E-2,2.203199381E-2
1.109118279E1,-8.621823043E-3,7.385121193E-3,1.746522635E-2,2.083050597E-2
1.110120779E1,-2.272090642E-3,8.098251186E-3,9.621145204E-3,1.277929979E-2
1.111123179E1,5.063320044E-3,1.940097287E-2,4.488967825E-3,2.054716015E-2
1.112125679E1,6.409668364E-3,2.622393705E-2,6.222493015E-3,2.770375683E-2
1.113128179E1,-6.831835024E-3,2.036924474E-2,1.059274003E-2,2.395383565E-2
1.114130579E1,-2.467965707E-2,7.579057477E-3,1.731672138E-2,3.108691726E-2
1.115133079E1,-4.183973372E-2,8.645121008E-3,2.870785818E-2,5.147273605E-2
1.116135579E1,-4.658552259E-2,1.261634007E-2,3.979373723E-2,6.255337301E-2
1.117138079E1,-3.498053178E-2,1.749312133E-2,4.394826666E-2,5.883108906E-2
1.118140479E1,-1.706656255E-2,1.682128012E-2,3.526661545E-2,4.263750916E-2
1.119142979E1,-4.813892301E-3,1.361030713E-2,2.186505869E-2,2.620104599E-2
1.120145479E1,2.334760968E-3,3.051341046E-4,9.087682702E-3,9.387768238E-3
1.121147979E1,2.497720998E-4,-1.401867718E-2,7.177930325E-3,1.575145643E-2
1.122150379E1,-5.887633190E-3,-1.320206095E-2,9.942259640E-3,1.754443400E-2
1.123152879E1,-7.863165811E-3,7.769798860E-3,1.242645644E-2,1.663177593E-2
1.124155379E1,-6.622379646E-3,2.594757453E-2,2.509453148E-2,3.669970090E-2
1.125157779E1,-3.874263959E-3,2.302289195E-2,3.389175236E-2,4.115476100E-2
1.126160279E1,-8.846131968E-4,1.440758258E-2,3.240133449E-2,3.547122007E-2
1.127162779E1,1.759106759E-3,8.059405722E-3,1.754036359E-2,1.938331324E-2
1.128165279E1,-5.194489378E-3,1.075026020E-2,6.916840561E-3,1.379831503E-2
1.129167679E1,-5.906885024E-3,4.669463728E-3,1.087980345E-3,7.607817257E-3
1.130170179E1,-3.580589546E-3,2.183894860E-3,-4.454124719E-4,4.217630914E-3
1.131172679E1,1.041326439E-3,6.824719720E-3,4.020708613E-3,7.989196315E-3
1.132175079E1,6.762134843E-3,8.784034289E-3,6.618318614E-3,1.291076556E-2
1.133177579E1,1.199098490E-2,7.210904732E-3,5.788477603E-3,1.514223692E-2
1.134180079E1,1.100022905E-2,1.247653039E-3,4.002340604E-3,1.177201799E-2
1.135182579E1,3.779067192E-3,3.777656006E-3,7.099863607E-3,8.885949414E-3
1.136184979E1,-7.443387993E-3,1.109465584E-2,1.270418055E-2,1.843614972E-2
1.137187479E1,-1.135637052E-2,1.624307781E-2,1.445014775E-2,2.452776994E-2
1.138189979E1,-9.860381484E-3,1.580538601E-2,1.742055267E-2,2.550515644E-2
1.139192479E1,-9.337336756E-3,9.067588486E-3,1.624290273E-2,2.081439184E-2
1.140194879E1,-9.592201561E-3,3.048045561E-3,1.516458951E-2,1.820070569E-2
1.141197379E1,-9.438270703E-3,6.704299711E-3,1.583730243E-2,1.961756195E-2
1.142199879E1,-1.295517571E-2,8.805698715E-3,2.214122750E-2,2.712214709E-2
1.143202279E1,-1.286010072E-2,5.220284685E-3,2.430770919E-2,2.799103943E-2
1.144204779E1,-1.197911985E-2,4.824934062E-3,2.045492083E-2,2.419055781E-2
1.145207279E1,-8.200626820E-3,6.775166839E-3,1.743170246E-2,2.042100430E-2
1.146209779E1,-3.574314294E-3,1.031177212E-2,1.321130805E-2,1.713613221E-2
1.147212179E1,-1.421415014E-3,7.891225629E-3,1.163098961E-2,1.412698771E-2
1.148214679E1,5.841921084E-4,4.531810060E-3,6.965979002E-3,8.330873082E-3
1.149217179E1,2.091008704E-3,8.044501301E-4,2.461242490E-3,3.328238574E-3
1.150219579E1,5.965381395E-3,3.834182862E-3,2.329786774E-3,7.464223993E-3
1.151222079E1,9.175023064E-3,7.944772020E-3,6.164206192E-3,1.361241671E-2
1.152224579E1,1.260859799E-2,1.201520674E-2,1.195561513E-2,2.112530874E-2
1.153227079E1,1.940631680E-2,1.113503240E-2,1.683292910E-2,2.799895678E-2
1.154229479E1,2.575133182E-2,-2.386815846E-3,1.584788784E-2,3.033123027E-2
1.155231979E1,2.848320082E-2,-1.261255518E-2,7.899417542E-3,3.213674026E-2
1.156234479E1,2.751127817E-2,-8.160211146E-3,-1.493738964E-4,2.869637233E-2
1.157236979E1,2.291120030E-2,3.409892786E-3,-5.869311281E-4,2.317099385E-2
1.158239379E1,1.541756466E-2,4.828472622E-3,3.541704733E-3,1.653962274E-2
1.159241879E1,8.896281011E-3,2.530697035E-3,8.711699396E-3,1.270598086E-2
1.160244379E1,3.697979730E-3,7.105326280E-3,9.910587221E-3,1.274285897E-2
1.161246779E1,4.942208529E-3,9.845453314E-3,1.048263442E-2,1.520670906E-2
1.162249279E1,7.894003764E-3,1.077843457E-2,7.812535390E-3,1.547661644E-2
1.163251779E1,1.989243086E-3,1.012329664E-2,6.519571412E-3,1.220422199E-2
1.164254279E1,-1.088832226E-2,1.268117316E-2,6.155281328E-3,1.781165917E-2
1.165256679E1,-2.700018138E-2,9.478988126E-3,3.297976218E-3,2.880516720E-2
1.166259179E1,-3.420283645E-2,6.235176697E-4,-1.925467281E-3,3.426266510E-2
1.167261679E1,-3.242863715E-2,5.984839518E-4,-4.280234221E-3,3.271536482E-2
1.168264079E1,-1.997223496E-2,3.817446763E-3,-3.142798319E-3,2.057523391E-2
1.169266579E1,-6.997314282E-3,6.914170459E-3,-3.850948997E-4,9.844615705E-3
1.170269079E1,6.732265465E-3,1.247111708E-2,-2.004202455E-3,1.431324516E-2
1.171271579E1,1.120291371E-2,1.924646460E-2,-3.964022733E-3,2.261957451E-2
1.172273979E1,1.077674609E-2,1.830072515E-2,-4.933167715E-3,2.180346167E-2
1.173276479E1,5.742839072E-3,1.002761628E-2,-1.205274835E-3,1.161834654E-2
1.174278979E1,2.775989007E-3,8.316676132E-3,-1.406087540E-3,8.879769086E-3
1.175281379E1,1.623905497E-3,1.124295779E-2,-2.529408783E-3,1.163782959E-2
1.176283879E1,1.915038330E-3,1.730476320E-2,-2.152195200E-3,1.754292294E-2
1.177286379E1,2.703067847E-3,2.175037749E-2,2.561866306E-3,2.206691315E-2
1.178288571E1,2.666532993E-3,1.847663522E-2,4.116243217E-3,1.911648256E-2
1.179290971E1,7.974745706E-3,1.057636738E-2,-2.649230883E-4,1.324863390E-2
1.180293471E1,1.520564966E-2,3.354972927E-3,-9.565611370E-3,1.827480631E-2
1.181295971E1,1.653962582E-2,1.065735985E-2,-2.263933420E-2,2.999463276E-2
1.182298471E1,1.682833210E-2,2.430323511E-2,-3.075350448E-2,4.265698110E-2
1.183300871E1,1.331748627E-2,4.003931955E-2,-2.544795536E-2,4.927576465E-2
1.184303371E1,-3.998070606E-4,4.644405097E-2,-1.480146684E-2,4.874723722E-2
1.185305871E1,-2.600476891E-2,4.976181686E-2,-2.196192974E-3,5.618994293E-2
1.186308271E1,-5.246822909E-2,5.567041039E-2,6.019782741E-3,7.673556829E-2
1.187310771E1,-7.687237114E-2,5.008948967E-2,1.610863581E-2,9.315474528E-2
1.188313271E1,-8.662740886E-2,3.051680699E-2,2.444563806E-2,9.504300445E-2
1.189315771E1,-8.698986471E-2,2.206126973E-2,3.793880716E-2,9.743351206E-2
1.190318171E1,-7.769906521E-2,3.478065506E-2,5.111524463E-2,9.929555344E-2
1.191320671E1,-6.130784750E-2,8.999571204E-2,6.385421008E-2,1.262348624E-1
1.192323171E1,-2.910776809E-2,8.052647859E-2,5.617227778E-2,1.024065462E-1
1.193325571E1,1.049823128E-2,3.722933680E-2,3.877704218E-2,5.477130068E-2
1.194328071E1,4.724484310E-2,2.328375168E-2,1.040586084E-2,5.368882781E-2
1.195330571E1,7.437472790E-2,3.989628330E-2,-6.153941154E-3,8.462378249E-2
1.196333071E1,1.008141488E-1,1.188286617E-1,1.826295163E-3,1.558431224E-1
1.197335471E1,1.237415671E-1,8.749737591E-2,3.694433719E-2,1.559892633E-1
1.198337971E1,1.248995140E-1,5.193404853E-2,5.558273196E-2,1.462411505E-1
1.199340471E1,1.159709916E-1,5.033402145E-2,5.731352419E-2,1.388078696E-1
1.200342971E1,1.165404171E-1,7.312822342E-2,6.166476011E-2,1.507711793E-1
1.201345371E1,1.334283203E-1,1.002930030E-1,7.951726019E-2,1.848913134E-1
1.202347871E1,1.510073692E-1,1.189868376E-1,1.028413400E-1,2.180308104E-1
1.203350371E1,1.549967825E-1,1.301553398E-1,1.158277169E-1,2.331962158E-1
1.204352771E1,1.358716339E-1,1.434305459E-1,1.186123788E-1,2.304394038E-1
1.205355271E1,1.215233207E-1,1.348503679E-1,1.122482270E-1,2.134296223E-1
1.206357771E1,1.214821935E-1,1.029620022E-1,9.888467938E-2,1.874493986E-1
1.207360271E1,1.286293119E-1,5.806723237E-2,8.363595605E-2,1.640496160E-1
1.208362671E1,1.376252472E-1,2.176390029E-2,6.873758882E-2,1.553680538E-1
1.209365171E1,1.454762369E-1,-8.645404130E-3,6.191963330E-2,1.583417807E-1
1.210367671E1,1.513482779E-1,-6.050616503E-3,6.910208613E-2,1.664872653E-1
1.211370071E1,1.694258153E-1,3.135614097E-2,8.127272874E-2,1.905087161E-1
1.212372571E1,2.033909708E-1,7.415422797E-2,8.773131669E-2,2.335883569E-1
1.213375071E1,2.469328493E-1,9.778711945E-2,9.068689495E-2,2.806461575E-1
1.214377571E1,2.746020555E-1,9.809948504E-2,9.159088135E-2,3.056447078E-1
1.215379971E1,2.752710283E-1,8.264702559E-2,8.950216323E-2,3.010237650E-1
1.216382471E1,2.391282469E-1,6.309229881E-2,8.015660942E-2,2.599769964E-1
1.217384971E1,1.728602797E-1,5.000152811E-2,5.789071694E-2,1.890295326E-1
1.218387371E1,9.032298625E-2,4.753289744E-2,3.152908012E-2,1.068255638E-1
1.219389871E1,9.039046243E-3,4.048644006E-2,-2.403585473E-3,4.155277860E-2
1.220392371E1,-5.311977491E-2,9.079014417E-4,-3.943204135E-2,6.616207869E-2
1.221394871E1,-9.399104118E-2,-4.936938360E-2,-7.438203692E-2,1.296315520E-1
1.222397271E1,-1.148279011E-1,-7.889515162E-2,-1.036021858E-1,1.736182731E-1
1.223399771E1,-1.036791056E-1,-6.567335874E-2,-1.140194088E-1,1.675194693E-1
1.224402271E1,-7.971557230E-2,-3.453390673E-2,-9.784840047E-2,1.308490453E-1
1.225404771E1,-6.012269482E-2,-1.439694595E-2,-6.522600353E-2,8.986902704E-2
1.226407171E1,-6.434447318E-2,-1.323813107E-2,-3.297238052E-2,7.350263411E-2
1.227409671E1,-8.720371872E-2,-3.589177877E-2,-5.323444027E-3,9.445129644E-2
1.228412171E1,-1.199173778E-1,-6.441435218E-2,1.071151718E-2,1.365434834E-1
1.229414571E1,-1.553712487E-1,-8.326713741E-2,1.184389368E-2,1.766746131E-1
1.230417071E1,-1.824165136E-1,-8.123609424E-2,-4.062436987E-3,1.997287932E-1
1.231419571E1,-1.864898205E-1,-7.904857397E-2,-3.871575743E-2,2.062184280E-1
1.232422071E1,-1.761904657E-1,-9.409119934E-2,-7.693944126E-2,2.140465174E-1
1.233424471E1,-1.581590027E-1,-9.939675033E-2,-1.063580513E-1,2.149558540E-1
1.234426971E1,-1.358050108E-1,-7.601118833E-2,-1.248388067E-1,1.995129804E-1
1.235429471E1,-1.044188589E-1,-4.525753856E-2,-1.326125711E-1,1.747502129E-1
1.236431871E1,-6.810215861E-2,-3.190641850E-2,-1.373598725E-1,1.566003133E-1
1.237434371E1,-3.979648277E-2,-3.485666960E-2,-1.453203261E-1,1.546503949E-1
1.238436871E1,-3.027470596E-2,-4.072320834E-2,-1.551755369E-1,1.632617064E-1
1.239439371E1,-3.412297368E-2,-5.817010999E-2,-1.629607528E-1,1.763642424E-1
1.240441771E1,-5.224135518E-2,-7.622580230E-2,-1.651730686E-1,1.892661479E-1
1.241444271E1,-7.597757131E-2,-7.604230940E-2,-1.518002599E-1,1.860062985E-1
1.242446771E1,-8.784767985E-2,-7.189210504E-2,-1.234587133E-1,1.677132777E-1
1.243449271E1,-7.950932533E-2,-5.677307770E-2,-7.886088639E-2,1.255545880E-1
1.244451671E1,-5.655352026E-2,-4.394433275E-2,-3.499449417E-2,7.971210483E-2
1.245454171E1,-3.559337556E-2,-3.827153146E-2,-2.890621778E-3,5.234457182E-2
1.246456671E1,-3.586493805E-2,-3.228193149E-2,1.947457530E-2,5.203533381E-2
1.247459071E1,-6.026029214E-2,-1.798741147E-2,3.134747967E-2,7.026744810E-2
1.248461571E1,-9.731702507E-2,-2.274901373E-3,3.950954601E-2,1.050560934E-1
1.249464071E1,-1.304198503E-1,1.370832603E-2,3.946214169E-2,1.369471292E-1
1.250466571E1,-1.539781541E-1,3.066305816E-2,4.251050949E-2,1.626549676E-1
1.251468971E1,-1.645991057E-1,3.879049420E-2,5.006376654E-2,1.763631162E-1
1.252471471E1,-1.572794020E-1,4.852616787E-2,5.942270160E-2,1.749933048E-1
1.253473971E1,-1.246902868E-1,4.859301448E-2,6.612134725E-2,1.492681521E-1
1.254476371E1,-8.556674421E-2,3.849441931E-2,6.850516796E-2,1.161742057E-1
1.255478871E1,-3.887141496E-2,2.960159630E-2,6.566277891E-2,8.184645343E-2
1.256481371E1,3.091941355E-3,2.310079150E-2,6.599570811E-2,6.999028617E-2
1.257483871E1,4.433019087E-2,2.091327123E-2,6.547053903E-2,8.178583140E-2
1.258486271E1,7.718129456E-2,1.672300696E-2,5.997924507E-2,9.916713685E-2
1.259488771E1,1.074411944E-1,1.550088264E-2,5.177697912E-2,1.202694607E-1
1.260491271E1,1.254490465E-1,1.631141454E-2,4.163584113E-2,1.331805871E-1
1.261493671E1,1.342236251E-1,7.808472961E-3,3.933034092E-2,1.400850795E-1
1.262496171E1,1.320980042E-1,-1.399315661E-3,4.159878939E-2,1.385001808E-1
1.263498671E1,1.215156764E-1,-2.982831094E-3,4.918453842E-2,1.311261824E-1
1.264501171E1,1.013491005E-1,9.155932814E-3,6.605432183E-2,1.213204216E-1
1.265503571E1,8.486013860E-2,3.758837283E-2,7.703027129E-2,1.206142263E-1
1.266506071E1,8.680236340E-2,4.526296631E-2,8.376093209E-2,1.288381937E-1
1.267508571E1,9.423018247E-2,3.197086230E-2,8.779188991E-2,1.326984524E-1
1.268511071E1,9.694946557E-2,3.200666606E-2,9.338898212E-2,1.383659190E-1
1.269513471E1,9.564744681E-2,4.962667450E-2,9.763859212E-2,1.454116074E-1
1.270515971E1,1.018069535E-1,8.052057773E-2,1.019026116E-1,1.650223060E-1
1.271518471E1,1.114100441E-1,1.025688946E-1,1.005670354E-1,1.817864260E-1
1.272520871E1,1.097406372E-1,1.057863310E-1,1.006494090E-1,1.826583117E-1
1.273523371E1,8.881085366E-2,1.016208827E-1,1.111678332E-1,1.748498175E-1
1.274525871E1,4.687527567E-2,1.090612561E-1,1.341739446E-1,1.791488109E-1
1.275528371E1,6.069258321E-3,1.044712961E-1,1.407133341E-1,1.753605714E-1
1.276530771E1,-1.510305423E-2,7.394428551E-2,1.246413291E-1,1.457097132E-1
1.277533271E1,-7.248327136E-3,3.494947404E-2,1.098783687E-1,1.155303418E-1
1.278535779E1,2.753392048E-2,1.404454838E-2,1.057718322E-1,1.101954926E-1
1.279538179E1,8.237346262E-2,4.976219498E-3,1.091865376E-1,1.368643492E-1
1.280540679E1,1.433100402E-1,-3.553190501E-3,1.145517975E-1,1.835007006E-1
1.281543179E1,1.925412267E-1,-1.916490681E-2,1.199399009E-1,2.276510432E-1
1.282545679E1,2.207085490E-1,-3.268290311E-2,1.259280890E-1,2.561997646E-1
1.283548079E1,2.318773121E-1,-3.820975870E-2,1.335785538E-1,2.703151930E-1
1.284550579E1,2.329458594E-1,-3.713409975E-2,1.449612379E-1,2.768690580E-1
1.285553079E1,2.257241607E-1,-4.103296623E-2,1.452722996E-1,2.715495205E-1
1.286555579E1,2.200222015E-1,-5.504884571E-2,1.378751993E-1,2.654236522E-1
1.287557979E1,2.176011205E-1,-7.523506880E-2,1.189813912E-1,2.591662298E-1
1.288560479E1,2.032770962E-1,-8.523946255E-2,9.038634598E-2,2.382373508E-1
1.289562979E1,1.661566347E-1,-8.420135826E-2,6.072779372E-2,1.959228443E-1
1.290565379E1,1.066597477E-1,-6.039844081E-2,4.555720091E-2,1.307659435E-1
1.291567879E1,4.267517477E-2,-2.893771417E-2,4.761768878E-2,7.018551224E-2
1.292570379E1,-2.119602822E-2,4.383873194E-3,7.233043015E-2,7.549954359E-2
1.293572879E1,-8.388417959E-2,5.069464818E-2,1.052715927E-1,1.438353614E-1
1.294575279E1,-1.311699152E-1,6.440564990E-2,1.414685994E-1,2.033887878E-1
1.295577779E1,-1.674597412E-1,3.291723132E-2,1.646599323E-1,2.371480600E-1
1.296580279E1,-1.838617623E-1,6.031498313E-3,1.666515321E-1,2.482221983E-1
1.297582679E1,-1.665813178E-1,-1.446046121E-2,1.463292092E-1,2.221951346E-1
1.298585179E1,-1.184908748E-1,-5.264655501E-2,1.161673367E-1,1.740879010E-1
1.299587679E1,-5.247377232E-2,-9.835598618E-2,9.245082736E-2,1.448259379E-1
1.300590179E1,8.022478782E-3,-1.210123822E-1,7.435361296E-2,1.422561653E-1
1.301592579E1,5.660093576E-2,-1.266883761E-1,6.759078056E-2,1.543441744E-1
1.302595079E1,1.043808982E-1,-1.282912195E-1,7.474582642E-2,1.814964117E-1
1.303597579E1,1.472444683E-1,-1.319421530E-1,9.511049092E-2,2.193984290E-1
1.304599979E1,1.927611083E-1,-1.390428245E-1,1.195891500E-1,2.660663765E-1
1.305602479E1,2.347801924E-1,-1.561413854E-1,1.438838243E-1,3.165508267E-1
1.306604979E1,2.589413524E-1,-1.603816450E-1,1.607766747E-1,3.444154978E-1
1.307607479E1,2.468814999E-1,-1.308857948E-1,1.622571200E-1,3.231237213E-1
1.308609879E1,2.017869949E-1,-7.916402817E-2,1.417426467E-1,2.589901785E-1
1.309612379E1,1.342473775E-1,-4.297940060E-2,1.055595949E-1,1.761034222E-1
1.310614879E1,5.555676296E-2,-4.429398105E-2,6.744005531E-2,9.796260372E-2
1.311617379E1,-3.349561617E-2,-5.186934024E-2,4.626206681E-2,7.715285857E-2
1.312619779E1,-1.202677786E-1,-2.584429458E-2,5.613062531E-2,1.352143233E-1
1.313622279E1,-1.940807551E-1,2.793717757E-2,8.735938370E-2,2.146613317E-1
1.314624779E1,-2.631405890E-1,7.345339656E-2,1.235403791E-1,2.998342814E-1
1.315627179E1,-3.356672525E-1,1.007462740E-1,1.479258686E-1,3.804002875E-1
1.316629679E1,-3.973270357E-1,9.733910114E-2,1.661827415E-1,4.415431773E-1
1.317632179E1,-4.272316694E-1,4.953881726E-2,1.656264067E-1,4.608829573E-1
1.318634679E1,-4.151183665E-1,7.852612063E-3,1.507568210E-1,4.417154523E-1
1.319637079E1,-3.597912192E-1,-1.009309851E-2,1.321820766E-1,3.834366877E-1
1.320639579E1,-2.767461240E-1,-8.427781053E-3,1.246881485E-1,3.036553623E-1
1.321642079E1,-1.720543504E-1,9.185300209E-3,1.347626299E-1,2.187419384E-1
1.322644479E1,-5.707765743E-2,3.980520368E-2,1.618378162E-1,1.761641053E-1
1.323646979E1,4.979872704E-2,6.881501526E-2,2.013636529E-1,2.185468835E-1
1.324649479E1,1.223442554E-1,7.701174915E-2,2.375611812E-1,2.780903471E-1
1.325651979E1,1.497479230E-1,4.587540403E-2,2.483472377E-1,2.936074652E-1
1.326654379E1,1.337267309E-1,3.588224761E-3,2.270672172E-1,2.635436113E-1
1.327656879E1,8.897496760E-2,-2.904322185E-2,1.813958734E-1,2.041188783E-1
1.328659379E1,3.883416951E-2,-4.733959585E-2,1.348976940E-1,1.481435719E-1
1.329661879E1,-1.327723637E-2,-6.394467503E-2,1.097249687E-1,1.276901532E-1
1.330664279E1,-4.994336888E-2,-6.859641522E-2,9.709652513E-2,1.289478324E-1
1.331666779E1,-5.865936354E-2,-7.217144221E-2,9.148471057E-2,1.304572354E-1
1.332669279E1,-4.382452741E-2,-6.013005227E-2,9.826345742E-2,1.232555048E-1
1.333671679E1,-2.235305682E-2,-2.983472869E-2,1.042747423E-1,1.107383947E-1
1.334674179E1,-4.462231882E-3,3.715551458E-3,1.027401760E-1,1.029041331E-1
1.335676679E1,-5.393273197E-3,2.011769265E-2,9.309953451E-2,9.540090293E-2
1.336679179E1,-3.254161403E-2,8.672078140E-3,8.075411618E-2,8.749507907E-2
1.337681579E1,-7.450051606E-2,-2.160566673E-2,7.232201099E-2,1.060547264E-1
1.338684079E1,-1.163961291E-1,-3.637021780E-2,6.526115537E-2,1.383107733E-1
1.339686579E1,-1.424413174E-1,-1.915154979E-2,6.464463472E-2,1.575920035E-1
1.340688979E1,-1.353965998E-1,4.153717309E-3,5.914927647E-2,1.478111278E-1
1.341691479E1,-1.168799028E-1,1.579679176E-2,4.071753845E-2,1.247732673E-1
1.342693979E1,-1.018866971E-1,2.171918377E-2,1.184320636E-2,1.048469529E-1
1.343696479E1,-1.054883525E-1,3.784329072E-2,-1.990753226E-2,1.138253794E-1
1.344698879E1,-1.212810054E-1,5.174700916E-2,-4.686913639E-2,1.399412419E-1
1.345701379E1,-1.361161470E-1,5.280801281E-2,-7.203094661E-2,1.628027917E-1
1.346703879E1,-1.478035003E-1,5.064244941E-2,-9.844344854E-2,1.846663070E-1
1.347706379E1,-1.525583118E-1,5.022167042E-2,-1.210414320E-1,2.011150988E-1
1.348708779E1,-1.419958770E-1,5.152729899E-2,-1.297781318E-1,1.991488266E-1
1.349711279E1,-1.017342061E-1,3.754037619E-2,-1.200788990E-1,1.617963860E-1
1.350713779E1,-3.182037175E-2,9.294504300E-3,-9.617899358E-2,1.017316208E-1
1.351716179E1,5.667753518E-2,-1.579140685E-2,-6.904165447E-2,9.071086801E-2
1.352718679E1,1.460666955E-1,-2.978868596E-2,-3.852701932E-2,1.539713498E-1
1.353721179E1,2.267546058E-1,-3.971774876E-2,-5.647897720E-3,2.302760290E-1
1.354723679E1,2.963355184E-1,-3.899527714E-2,2.287603728E-2,2.997643811E-1
1.355726079E1,3.441408575E-1,-3.827329725E-2,4.494298995E-2,3.491670766E-1
1.356728579E1,3.743968010E-1,-1.126469858E-2,5.831133202E-2,3.790779201E-1
1.357731079E1,4.065909684E-1,2.485921606E-2,6.875491142E-2,4.131118904E-1
1.358733479E1,4.339100122E-1,5.190222710E-2,7.431203127E-2,4.432764576E-1
1.359735979E1,4.372535944E-1,7.552286983E-2,6.564690173E-2,4.485576054E-1
1.360738479E1,4.129224420E-1,9.747646004E-2,4.027369991E-2,4.261790401E-1
1.361740979E1,3.767285049E-1,9.484738111E-2,-8.687449619E-3,3.885818625E-1
1.362743379E1,3.435920775E-1,8.907143027E-2,-6.526264548E-2,3.608994989E-1
1.363745879E1,3.167098761E-1,4.647497088E-2,-1.249408871E-1,3.436208576E-1
1.364748379E1,2.870194912E-1,1.088251453E-2,-1.772707850E-1,3.375256267E-1
1.365750779E1,2.579601407E-1,-1.148723904E-2,-2.072720975E-1,3.311149547E-1
1.366753279E1,2.343562096E-1,-2.799151093E-2,-2.214743793E-1,3.236622597E-1
1.367755779E1,2.028243840E-1,-4.285594448E-2,-2.299975604E-1,3.096340429E-1
1.368758279E1,1.639934927E-1,-6.298631430E-2,-2.303089648E-1,2.896607684E-1
1.369760679E1,1.134719923E-1,-8.428867906E-2,-2.148490548E-1,2.571781305E-1
1.370763179E1,5.362350121E-2,-1.060527116E-1,-1.702036262E-1,2.075859626E-1
1.371765679E1,2.575762104E-3,-1.184063181E-1,-9.890653938E-2,1.543022821E-1
1.372768179E1,-2.878313512E-2,-1.274782419E-1,-1.714651659E-2,1.318073369E-1
1.373770579E1,-3.563171625E-2,-9.345609695E-2,5.608854815E-2,1.146716464E-1
1.374773079E1,-1.006799750E-2,-5.079471320E-2,1.024362370E-1,1.147808787E-1
1.375775579E1,3.420599177E-2,9.347189218E-3,9.554504603E-2,1.019130789E-1
1.376777979E1,9.245718271E-2,7.284247130E-2,6.075795740E-2,1.324608835E-1
1.377780479E1,1.639622599E-1,1.114668250E-1,2.605969552E-3,1.982807777E-1
1.378782992E1,2.307581306E-1,1.307761222E-1,-7.941181958E-2,2.768717141E-1
1.379785492E1,2.802074254E-1,1.321918666E-1,-1.750704348E-1,3.558659129E-1
1.380787892E1,3.057233393E-1,1.042743772E-1,-2.771246135E-1,4.256030514E-1
1.381790392E1,2.925196290E-1,5.398085341E-2,-3.756929934E-1,4.791940016E-1
1.382792892E1,2.504924536E-1,-1.150837727E-2,-4.323614538E-1,4.998153046E-1
1.383795292E1,1.918293983E-1,-6.447332352E-2,-4.450681806E-1,4.889182067E-1
1.384797792E1,1.286580563E-1,-9.598981589E-2,-4.119670987E-1,4.421355342E-1
1.385800292E1,8.322186768E-2,-8.650203794E-2,-3.467862308E-1,3.669729850E-1
1.386802792E1,4.895970225E-2,-8.660021424E-2,-2.679892778E-1,2.858581861E-1
1.387805192E1,1.917330921E-2,-1.156054959E-1,-1.826317608E-1,2.169944850E-1
1.388807692E1,-1.712609455E-2,-1.445327699E-1,-9.902383387E-2,1.760362019E-1
1.389810192E1,-6.450372934E-2,-1.465245485E-1,-2.818455175E-2,1.625562776E-1
1.390812692E1,-1.156967431E-1,-1.176732630E-1,1.081203483E-2,1.653772454E-1
1.391815092E1,-1.663713753E-1,-8.574995399E-2,2.476566844E-2,1.888010261E-1
1.392817592E1,-1.971014738E-1,-7.321967930E-2,6.145502441E-3,2.103517996E-1
1.393820092E1,-1.917013824E-1,-1.098075137E-1,-3.240322322E-2,2.232869879E-1
1.394822492E1,-1.669870764E-1,-1.439255327E-1,-8.348309249E-2,2.357300774E-1
1.395824992E1,-1.378427744E-1,-1.571446657E-1,-1.487941891E-1,2.565829050E-1
1.396827492E1,-1.148253232E-1,-1.559795588E-1,-2.052360475E-1,2.821990659E-1
1.397829992E1,-9.644178301E-2,-1.583114117E-1,-2.390494049E-1,3.025031216E-1
1.398832392E1,-8.340890706E-2,-1.409076601E-1,-2.574057877E-1,3.050733584E-1
1.399834892E1,-6.875406206E-2,-1.257851571E-1,-2.579434812E-1,2.950997565E-1
1.400837392E1,-6.022551283E-2,-1.386433691E-1,-2.433131337E-1,2.864443702E-1
1.401839892E1,-6.429695338E-2,-1.769622564E-1,-2.194120586E-1,2.891217561E-1
1.402842292E1,-7.952378690E-2,-2.051464468E-1,-1.817239523E-1,2.853641396E-1
1.403844792E1,-1.012341455E-1,-1.873567998E-1,-1.320738345E-1,2.505881490E-1
1.404847292E1,-1.119719669E-1,-1.550846696E-1,-7.743999362E-2,2.063635838E-1
1.405849692E1,-1.090853661E-1,-1.328941584E-1,-2.245850116E-2,1.733922106E-1
1.406852192E1,-1.020837873E-1,-1.118838638E-1,1.363593340E-2,1.520691859E-1
1.407854692E1,-1.056223288E-1,-9.569877386E-2,2.266644686E-2,1.443194355E-1
1.408857192E1,-1.326707304E-1,-7.306949794E-2,1.842200570E-2,1.525779949E-1
1.409859592E1,-1.812832654E-1,-4.428819194E-2,1.968860440E-2,1.876504926E-1
1.410862092E1,-2.314381152E-1,-7.807843387E-3,2.688371204E-2,2.331250685E-1
1.411864592E1,-2.661968768E-1,3.048415110E-2,3.997235000E-2,2.709019185E-1
1.412866992E1,-2.806025445E-1,7.417434454E-2,4.267016798E-2,2.933604688E-1
1.413869492E1,-2.843261659E-1,1.088154092E-1,3.594701737E-2,3.065523609E-1
1.414871992E1,-2.846187055E-1,1.228030697E-1,2.668330073E-2,3.111276265E-1
1.415874492E1,-2.759107053E-1,1.323385239E-1,2.045709640E-2,3.066899004E-1
1.416876892E1,-2.561560273E-1,1.371619403E-1,2.317631245E-2,2.914900507E-1
1.417879392E1,-2.323974222E-1,1.369243860E-1,2.826401405E-2,2.712115481E-1
1.418881892E1,-2.053928822E-1,1.277563125E-1,3.325815499E-2,2.441598172E-1
1.419884292E1,-1.881366670E-1,9.801387042E-2,3.304989636E-2,2.146961106E-1
1.420886792E1,-1.827312559E-1,7.352318615E-2,4.178494960E-2,2.013513168E-1
1.421889292E1,-1.762802750E-1,5.757538229E-2,5.325039104E-2,1.929384983E-1
1.422891792E1,-1.628796905E-1,4.520789906E-2,8.002700657E-2,1.870237137E-1
1.423894192E1,-1.363940239E-1,4.193434119E-2,1.109343246E-1,1.807435838E-1
1.424896692E1,-9.298847616E-2,3.776463121E-2,1.426467150E-1,1.744164825E-1
1.425899192E1,-4.240066931E-2,3.691188619E-2,1.633772850E-1,1.727785906E-1
1.426901692E1,4.700122867E-3,4.281127080E-2,1.714170873E-1,1.767447705E-1
1.427904092E1,4.871205240E-2,4.115078971E-2,1.634483784E-1,1.754469263E-1
1.428906592E1,8.530507237E-2,4.968057200E-2,1.457104683E-1,1.760018613E-1
1.429909092E1,1.228899956E-1,9.623636305E-2,1.297530830E-1,2.029759866E-1
1.430911492E1,1.590509117E-1,1.329719126E-1,1.098357588E-1,2.346116279E-1
1.431913992E1,1.853213906E-1,1.359037906E-1,8.527369052E-2,2.451233576E-1
1.432916492E1,1.949568987E-1,1.366408169E-1,4.271311313E-2,2.418745857E-1
1.433918992E1,1.841090471E-1,1.412052065E-1,5.127121229E-3,2.320804579E-1
1.434921392E1,1.558918059E-1,1.506039798E-1,-1.915046573E-2,2.176018249E-1
1.435923892E1,1.222345158E-1,1.514918804E-1,-5.294011906E-2,2.017268522E-1
1.436926392E1,8.331243694E-2,1.211126298E-1,-9.859366715E-2,1.770026622E-1
1.437928892E1,3.991330042E-2,6.373296678E-2,-1.335247606E-1,1.532443288E-1
1.438931292E1,-2.104896493E-2,-2.449220046E-3,-1.569756269E-1,1.583995109E-1
1.439933792E1,-8.216878027E-2,-3.382525221E-2,-1.809893399E-1,2.016258845E-1
1.440936292E1,-1.225679815E-1,-1.166997291E-2,-2.068949491E-1,2.407584231E-1
1.441938692E1,-1.311532110E-1,5.897863209E-2,-2.222267538E-1,2.646967584E-1
1.442941192E1,-1.096759811E-1,1.644605845E-1,-2.330562621E-1,3.055999444E-1
1.443943692E1,-7.010886073E-2,2.326172739E-1,-2.386976331E-1,3.405915568E-1
1.444946192E1,-2.640354075E-2,2.402990162E-1,-2.450456172E-1,3.442210317E-1
1.445948592E1,-6.201600656E-3,2.058190703E-1,-2.553882599E-1,3.280596178E-1
1.446951092E1,-2.701241150E-2,1.608417183E-1,-2.564572394E-1,3.039244057E-1
1.447953592E1,-6.995801628E-2,1.323749274E-1,-2.448937595E-1,2.870369295E-1
1.448955992E1,-1.043528244E-1,1.108525768E-1,-2.283394635E-1,2.744389118E-1
1.449958492E1,-1.340928674E-1,9.368664026E-2,-2.002694756E-1,2.585845055E-1
1.450960992E1,-1.575485319E-1,7.134117186E-2,-1.606285721E-1,2.360352535E-1
1.451963492E1,-1.550558060E-1,2.348523401E-2,-1.182201356E-1,1.963921069E-1
1.452965892E1,-1.140554994E-1,-6.118606776E-2,-6.722162664E-2,1.458462853E-1
1.453968392E1,-6.143835187E-2,-1.559557170E-1,-1.164545398E-2,1.680252164E-1
1.454970892E1,6.804595701E-3,-1.227850839E-1,3.082296252E-2,1.267774995E-1
1.455973392E1,1.332719922E-1,-2.062080801E-1,7.317440957E-2,2.561985371E-1
1.456975792E1,2.832460701E-1,-2.362591028E-1,1.065774411E-1,3.839341752E-1
1.457978292E1,4.229200780E-1,-2.402250767E-1,1.196825877E-1,5.008926049E-1
1.458980792E1,5.152043700E-1,-2.280737311E-1,1.092797220E-1,5.739296362E-1
1.459983192E1,5.352164507E-1,-2.042299062E-1,8.601141721E-2,5.792792656E-1
1.460985692E1,4.861702025E-1,-1.741975248E-1,6.274260581E-2,5.202334841E-1
1.461988192E1,3.897467554E-1,-1.374099553E-1,4.265092313E-2,4.154553290E-1
1.462990692E1,2.743206918E-1,-1.183146462E-1,2.189188264E-2,2.995487473E-1
1.463993092E1,1.489065737E-1,-1.105528623E-1,4.995723255E-3,1.855264409E-1
1.464995592E1,2.086328156E-2,-8.539543301E-2,-1.956483815E-3,8.792885946E-2
1.465998092E1,-8.485116810E-2,-5.726338923E-2,-9.506013244E-3,1.028065210E-1
1.467000492E1,-1.600424945E-1,-3.001512587E-2,-2.722495934E-3,1.628555182E-1
1.468002992E1,-2.099378854E-1,-9.907195345E-3,2.599862963E-2,2.117734568E-1
1.469005492E1,-2.404090464E-1,1.176306419E-2,7.666893303E-2,2.526123603E-1
1.470007992E1,-2.624461651E-1,2.562455088E-2,1.331002414E-1,2.953815862E-1
1.471010392E1,-2.788648903E-1,5.465546250E-2,1.739598960E-1,3.331889735E-1
1.472012892E1,-2.822300494E-1,8.411055803E-2,1.998516768E-1,3.559059981E-1
1.473015392E1,-2.593754530E-1,9.296148270E-2,2.094763815E-1,3.461182129E-1
1.474017892E1,-2.194778174E-1,8.134423941E-2,2.056928277E-1,3.116038141E-1
1.475020292E1,-1.720696092E-1,5.288029090E-2,1.819655895E-1,2.559604488E-1
1.476022792E1,-1.237263009E-1,3.224904463E-2,1.420013905E-1,1.910826871E-1
1.477025292E1,-8.277942240E-2,3.251419216E-2,9.264109284E-2,1.284210946E-1
1.478027692E1,-4.435666278E-2,4.802657291E-2,4.747334868E-2,8.079470325E-2
1.479030467E1,-3.305626567E-3,6.010066718E-2,1.608756557E-2,6.230431067E-2
1.480032967E1,2.753564343E-2,5.761061236E-2,-4.725837614E-3,6.402755545E-2
1.481035467E1,4.113801196E-2,6.661142409E-2,-2.231174707E-2,8.140781231E-2
1.482037867E1,4.053826630E-2,7.887235284E-2,-3.025542572E-2,9.369946565E-2
1.483040367E1,3.319348022E-2,7.374717295E-2,-2.584577724E-2,8.490263158E-2
1.484042867E1,2.513742074E-2,6.949037313E-2,-1.169959735E-2,7.481766141E-2
1.485045367E1,1.273939759E-2,6.230335310E-2,8.440092206E-4,6.359805351E-2
1.486047767E1,-2.408928471E-3,4.436749592E-2,1.513453107E-2,4.693965980E-2
1.487050267E1,-1.627874933E-2,2.907467633E-2,3.700274602E-2,4.979495654E-2
1.488052767E1,-1.928812079E-2,3.091838211E-2,5.868726596E-2,6.908091735E-2
1.489055167E1,-1.170688681E-2,5.258557945E-2,8.105366677E-2,9.732415560E-2
1.490057667E1,1.504522515E-3,6.049516797E-2,1.082378849E-1,1.240055187E-1
1.491060167E1,9.701835923E-3,3.688448295E-2,1.305041760E-1,1.359629753E-1
1.492062667E1,5.070864689E-3,1.592860371E-2,1.509204954E-1,1.518434392E-1
1.493065067E1,-1.015119907E-2,1.456781570E-2,1.635782868E-1,1.645391260E-1
1.494067567E1,-3.074169531E-2,1.402985677E-2,1.677980721E-1,1.711668242E-1
1.495070067E1,-4.948494211E-2,1.670115627E-2,1.396208256E-1,1.490693230E-1
1.496072467E1,-6.502528489E-2,2.311218344E-2,8.487955481E-2,1.093937819E-1
1.497074967E1,-7.570562512E-2,4.435568675E-2,1.557744760E-2,8.911467609E-2
1.498077467E1,-6.757579744E-2,6.113333628E-2,-5.780356005E-2,1.079121159E-1
1.499079967E1,-4.747386277E-2,3.065139800E-2,-1.347688437E-1,1.461366383E-1
1.500082367E1,-5.044515058E-2,2.047253028E-2,-2.031042278E-1,2.102740237E-1
1.501084867E1,-8.207030594E-2,3.098221123E-2,-2.501683831E-1,2.651030978E-1
1.502087367E1,-1.319987178E-1,4.067745060E-2,-2.612231672E-1,2.954925711E-1
1.503089867E1,-1.815809608E-1,2.219703421E-2,-2.593018413E-1,3.173354668E-1
1.504092267E1,-2.278904021E-1,1.144212391E-2,-2.589297891E-1,3.451225771E-1
1.505094767E1,-2.182208747E-1,-9.719586372E-2,-2.648416758E-1,3.566630052E-1
1.506097267E1,-1.818748415E-1,-2.118683904E-1,-2.659159899E-1,3.855878454E-1
1.507099667E1,-1.486610323E-1,-2.280360460E-1,-2.609985471E-1,3.771217077E-1
1.508102167E1,-8.385435492E-2,-1.594657749E-1,-2.501003444E-1,3.082386551E-1
1.509104667E1,2.204393223E-2,-9.831785411E-2,-2.335825562E-1,2.543877866E-1
1.510107167E1,1.394693553E-1,-2.350193821E-2,-2.188603431E-1,2.605837523E-1
1.511109567E1,2.371187657E-1,2.876475826E-2,-2.135982364E-1,3.204324063E-1
1.512112067E1,2.844130397E-1,4.734536633E-2,-2.091057599E-1,3.561707170E-1
1.513114567E1,2.690590918E-1,3.316937387E-2,-2.093346119E-1,3.425112874E-1
1.514117067E1,2.059903890E-1,3.018131247E-3,-2.052402794E-1,2.908001406E-1
1.515119467E1,1.184892580E-1,-1.737668365E-2,-1.954097599E-1,2.291868837E-1
1.516121967E1,2.988562174E-2,-1.918896660E-2,-1.760112941E-1,1.795587438E-1
1.517124467E1,-4.330538586E-2,3.811249044E-3,-1.385100186E-1,1.451719922E-1
1.518126867E1,-8.704300970E-2,1.183428802E-2,-8.996752650E-2,1.257405731E-1
1.519129367E1,-1.184800267E-1,-3.849738277E-4,-2.888062783E-2,1.219498077E-1
1.520131867E1,-1.351668537E-1,-2.389562503E-2,3.562992066E-2,1.418117431E-1
1.521134367E1,-1.442449540E-1,-3.976580128E-2,8.874871582E-2,1.739662619E-1
1.522136767E1,-1.218837127E-1,-5.961460993E-2,1.097053960E-1,1.744844264E-1
1.523139267E1,-5.809111893E-2,-9.519822896E-2,9.534819424E-2,1.467261362E-1
1.524141767E1,4.532422125E-2,-1.329115182E-1,6.925587356E-2,1.565762841E-1
1.525144267E1,1.873642653E-1,-1.460865736E-1,3.163117915E-2,2.396814269E-1
1.526146667E1,3.390041292E-1,-1.248047277E-1,-1.783730462E-2,3.616879720E-1
1.527149167E1,4.694565833E-1,-8.496712148E-2,-9.958886355E-2,4.873672507E-1
1.528151667E1,5.554889441E-1,-6.344478577E-2,-1.899640262E-1,5.904909306E-1
1.529154067E1,5.691134930E-1,-8.265929669E-2,-2.487043887E-1,6.265593349E-1
1.530156567E1,5.012441874E-1,-1.162542775E-1,-2.731580734E-1,5.825599759E-1
1.531159067E1,3.780949414E-1,-1.268560737E-1,-2.581338286E-1,4.750592822E-1
1.532161567E1,2.547620833E-1,-1.454169750E-1,-2.106520683E-1,3.611427828E-1
1.533163967E1,1.283596456E-1,-1.193672493E-1,-1.490782946E-1,2.301066639E-1
1.534166467E1,3.149301931E-2,-8.394160867E-2,-8.781199902E-2,1.254948250E-1
1.535168967E1,-3.771900758E-2,-7.893282920E-2,-1.225986332E-2,8.833696456E-2
1.536171467E1,-9.677939862E-2,-7.707713544E-2,7.404972613E-2,1.441891076E-1
1.537173867E1,-1.570544988E-1,-6.315927953E-2,1.591115594E-1,2.323180977E-1
1.538176367E1,-2.190321088E-1,-5.265710130E-2,2.346611768E-1,3.252901826E-1
1.539178867E1,-2.732836604E-1,-3.102445230E-2,2.910766304E-1,4.004648304E-1
1.540181267E1,-3.090725541E-1,-5.590730347E-3,3.098170161E-1,4.376570386E-1
1.541183767E1,-3.007795513E-1,-7.366146892E-4,2.902180552E-1,4.179657889E-1
1.542186267E1,-2.559476495E-1,-6.488775834E-3,2.378049046E-1,3.494316473E-1
1.543188767E1,-1.931934059E-1,-1.744397171E-2,1.554773897E-1,2.485984773E-1
1.544191167E1,-1.315010190E-1,-3.573376313E-2,5.393026024E-2,1.465533787E-1
1.545193667E1,-9.079438448E-2,-5.689811334E-2,-4.352029413E-2,1.156504715E-1
1.546196167E1,-6.384878606E-2,-8.652658015E-2,-1.179700270E-1,1.596259497E-1
1.547198567E1,-3.631607443E-2,-1.159000024E-1,-1.605334282E-1,2.013023830E-1
1.548201067E1,-5.494511686E-3,-1.488893777E-1,-1.708521098E-1,2.266907141E-1
1.549203567E1,2.851507626E-2,-1.560727954E-1,-1.538027376E-1,2.209685705E-1
1.550206067E1,6.365122646E-2,-1.395705193E-1,-1.216402724E-1,1.957747797E-1
1.551208467E1,9.079761058E-2,-1.213743240E-1,-7.855069637E-2,1.707224195E-1
1.552210967E1,1.027514786E-1,-1.061812565E-1,-2.690268494E-2,1.501868171E-1
1.553213467E1,1.011186913E-1,-9.871961176E-2,2.346488088E-2,1.432520579E-1
1.554215967E1,8.259107918E-2,-9.264014661E-2,7.035729289E-2,1.426661550E-1
1.555218367E1,5.446930975E-2,-6.432496011E-2,1.133773774E-1,1.412764520E-1
1.556220867E1,1.648570597E-2,-3.000293486E-2,1.618844718E-1,1.654646089E-1
1.557223367E1,-2.514902875E-2,-2.894041594E-3,2.086941600E-1,2.102239319E-1
1.558225767E1,-6.900063902E-2,1.574276015E-2,2.436572015E-1,2.537277173E-1
1.559228267E1,-1.140991524E-1,3.760360554E-2,2.552787662E-1,2.821345356E-1
1.560230767E1,-1.622578949E-1,6.202452630E-2,2.415224761E-1,2.975025593E-1
1.561233267E1,-2.041648179E-1,8.416984230E-2,2.071165740E-1,3.027624654E-1
1.562235667E1,-2.384783179E-1,1.023278087E-1,1.628124863E-1,3.063507699E-1
1.563238167E1,-2.566234171E-1,1.190793961E-1,1.156623960E-1,3.056358465E-1
1.564240667E1,-2.516561151E-1,1.463733315E-1,8.264853060E-2,3.026329989E-1
1.565243167E1,-2.247873247E-1,1.696379334E-1,6.896465272E-2,2.899353257E-1
1.566245567E1,-1.818236113E-1,1.644242704E-1,6.964455545E-2,2.548441296E-1
1.567248067E1,-1.387598515E-1,1.276312172E-1,8.127200603E-2,2.053026131E-1
1.568250567E1,-1.031043753E-1,7.502047718E-2,1.100144386E-1,1.684095036E-1
1.569252967E1,-7.160411030E-2,4.830516875E-2,1.436847001E-1,1.676479376E-1
1.570255467E1,-3.404155001E-2,4.885591194E-2,1.685415804E-1,1.787512003E-1
1.571257967E1,8.562277071E-3,6.173535809E-2,1.936776489E-1,2.034590836E-1
1.572260467E1,5.173318088E-2,7.558806241E-2,2.112047076E-1,2.302114370E-1
1.573262867E1,1.000889316E-1,8.354329318E-2,2.125248909E-1,2.493273056E-1
1.574265367E1,1.422313303E-1,9.083529562E-2,2.026107311E-1,2.636890415E-1
1.575267867E1,1.882557422E-1,8.311821520E-2,1.866115630E-1,2.777998157E-1
1.576270367E1,2.370259315E-1,4.179714620E-2,1.739247888E-1,2.969480187E-1
1.577272767E1,2.793007791E-1,7.477919571E-3,1.569619626E-1,3.204713750E-1
1.578274929E1,3.094317913E-1,-3.307882696E-3,1.465559304E-1,3.423997901E-1
1.579277429E1,3.120886683E-1,3.311119974E-2,1.381768137E-1,3.429118259E-1
1.580279829E1,2.788699865E-1,8.783809841E-2,1.319119930E-1,3.207565663E-1
1.581282329E1,2.093203515E-1,1.238060221E-1,1.342156976E-1,2.777711183E-1
1.582284829E1,1.138452217E-1,1.315744519E-1,1.384930015E-1,2.223800404E-1
1.583287329E1,2.757867984E-2,1.201399341E-1,1.159149632E-1,1.692053960E-1
1.584289729E1,-3.494860977E-2,1.179377660E-1,7.616835088E-2,1.446801287E-1
1.585292229E1,-6.419411302E-2,1.165704951E-1,3.809580579E-2,1.384227398E-1
1.586294729E1,-6.853010505E-2,1.073134989E-1,8.654800244E-3,1.276223644E-1
1.587297229E1,-6.289982051E-2,7.536873221E-2,-1.222968288E-2,9.892622685E-2
1.588299629E1,-4.985405877E-2,3.398986533E-2,-2.707334235E-2,6.613398512E-2
1.589302129E1,-3.487764299E-2,-6.106349640E-3,-3.176894784E-2,4.757103671E-2
1.590304629E1,-1.741609536E-2,-4.605829343E-2,-2.593582682E-2,5.565387574E-2
1.591307029E1,1.396348421E-2,-9.879047424E-2,-1.256259158E-2,1.005602078E-1
1.592309529E1,6.932155043E-2,-1.667391658E-1,6.464895327E-3,1.806909561E-1
1.593312029E1,1.443184018E-1,-2.123359740E-1,1.685401611E-2,2.572905455E-1
